#,Time(ms),CH1(mV)
0,0.0102000,40.00
1,0.0101600,20.00
2,0.0101200,40.00
3,0.0100800,20.00
4,0.0100400,40.00
5,0.0100000,40.00
6,0.0099600,60.00
7,0.0099200,20.00
8,0.0098800,40.00
9,0.0098400,20.00
10,0.0098000,40.00
11,0.0097600,0.00
12,0.0097200,40.00
13,0.0096800,0.00
14,0.0096400,40.00
15,0.0096000,0.00
16,0.0095600,40.00
17,0.0095200,0.00
18,0.0094800,40.00
19,0.0094400,20.00
20,0.0094000,40.00
21,0.0093600,20.00
22,0.0093200,40.00
23,0.0092800,20.00
24,0.0092400,40.00
25,0.0092000,40.00
26,0.0091600,60.00
27,0.0091200,0.00
28,0.0090800,40.00
29,0.0090400,20.00
30,0.0090000,40.00
31,0.0089600,0.00
32,0.0089200,40.00
33,0.0088800,0.00
34,0.0088400,60.00
35,0.0088000,20.00
36,0.0087600,40.00
37,0.0087200,20.00
38,0.0086800,40.00
39,0.0086400,20.00
40,0.0086000,60.00
41,0.0085600,40.00
42,0.0085200,40.00
43,0.0084800,40.00
44,0.0084400,40.00
45,0.0084000,20.00
46,0.0083600,40.00
47,0.0083200,0.00
48,0.0082800,20.00
49,0.0082400,0.00
50,0.0082000,40.00
51,0.0081600,0.00
52,0.0081200,40.00
53,0.0080800,20.00
54,0.0080400,40.00
55,0.0080000,0.00
56,0.0079600,40.00
57,0.0079200,20.00
58,0.0078800,40.00
59,0.0078400,20.00
60,0.0078000,40.00
61,0.0077600,20.00
62,0.0077200,40.00
63,0.0076800,0.00
64,0.0076400,40.00
65,0.0076000,0.00
66,0.0075600,40.00
67,0.0075200,0.00
68,0.0074800,40.00
69,0.0074400,0.00
70,0.0074000,40.00
71,0.0073600,20.00
72,0.0073200,40.00
73,0.0072800,20.00
74,0.0072400,40.00
75,0.0072000,20.00
76,0.0071600,40.00
77,0.0071200,20.00
78,0.0070800,40.00
79,0.0070400,20.00
80,0.0070000,60.00
81,0.0069600,0.00
82,0.0069200,40.00
83,0.0068800,0.00
84,0.0068400,40.00
85,0.0068000,0.00
86,0.0067600,40.00
87,0.0067200,20.00
88,0.0066800,40.00
89,0.0066400,20.00
90,0.0066000,40.00
91,0.0065600,40.00
92,0.0065200,40.00
93,0.0064800,0.00
94,0.0064400,60.00
95,0.0064000,40.00
96,0.0063600,60.00
97,0.0063200,20.00
98,0.0062800,40.00
99,0.0062400,20.00
100,0.0062000,40.00
101,0.0061600,20.00
102,0.0061200,40.00
103,0.0060800,0.00
104,0.0060400,40.00
105,0.0060000,20.00
106,0.0059600,60.00
107,0.0059200,20.00
108,0.0058800,40.00
109,0.0058400,20.00
110,0.0058000,60.00
111,0.0057600,40.00
112,0.0057200,40.00
113,0.0056800,20.00
114,0.0056400,60.00
115,0.0056000,20.00
116,0.0055600,40.00
117,0.0055200,20.00
118,0.0054800,40.00
119,0.0054400,20.00
120,0.0054000,40.00
121,0.0053600,20.00
122,0.0053200,40.00
123,0.0052800,0.00
124,0.0052400,40.00
125,0.0052000,20.00
126,0.0051600,40.00
127,0.0051200,20.00
128,0.0050800,60.00
129,0.0050400,40.00
130,0.0050000,40.00
131,0.0049600,20.00
132,0.0049200,60.00
133,0.0048800,20.00
134,0.0048400,40.00
135,0.0048000,20.00
136,0.0047600,40.00
137,0.0047200,0.00
138,0.0046800,60.00
139,0.0046400,20.00
140,0.0046000,40.00
141,0.0045600,40.00
142,0.0045200,40.00
143,0.0044800,20.00
144,0.0044400,60.00
145,0.0044000,40.00
146,0.0043600,60.00
147,0.0043200,40.00
148,0.0042800,60.00
149,0.0042400,40.00
150,0.0042000,60.00
151,0.0041600,20.00
152,0.0041200,40.00
153,0.0040800,0.00
154,0.0040400,40.00
155,0.0040000,20.00
156,0.0039600,40.00
157,0.0039200,40.00
158,0.0038800,60.00
159,0.0038400,40.00
160,0.0038000,60.00
161,0.0037600,60.00
162,0.0037200,60.00
163,0.0036800,60.00
164,0.0036400,60.00
165,0.0036000,40.00
166,0.0035600,60.00
167,0.0035200,40.00
168,0.0034800,60.00
169,0.0034400,60.00
170,0.0034000,60.00
171,0.0033600,60.00
172,0.0033200,60.00
173,0.0032800,40.00
174,0.0032400,80.00
175,0.0032000,60.00
176,0.0031600,80.00
177,0.0031200,60.00
178,0.0030800,80.00
179,0.0030400,60.00
180,0.0030000,80.00
181,0.0029600,60.00
182,0.0029200,80.00
183,0.0028800,60.00
184,0.0028400,80.00
185,0.0028000,60.00
186,0.0027600,80.00
187,0.0027200,60.00
188,0.0026800,80.00
189,0.0026400,60.00
190,0.0026000,80.00
191,0.0025600,80.00
192,0.0025200,100.00
193,0.0024800,80.00
194,0.0024400,100.00
195,0.0024000,80.00
196,0.0023600,120.00
197,0.0023200,80.00
198,0.0022800,100.00
199,0.0022400,100.00
200,0.0022000,120.00
201,0.0021600,80.00
202,0.0021200,120.00
203,0.0020800,80.00
204,0.0020400,120.00
205,0.0020000,100.00
206,0.0019600,120.00
207,0.0019200,80.00
208,0.0018800,120.00
209,0.0018400,100.00
210,0.0018000,140.00
211,0.0017600,120.00
212,0.0017200,120.00
213,0.0016800,120.00
214,0.0016400,140.00
215,0.0016000,120.00
216,0.0015600,140.00
217,0.0015200,120.00
218,0.0014800,140.00
219,0.0014400,120.00
220,0.0014000,140.00
221,0.0013600,120.00
222,0.0013200,140.00
223,0.0012800,120.00
224,0.0012400,140.00
225,0.0012000,120.00
226,0.0011600,160.00
227,0.0011200,140.00
228,0.0010800,160.00
229,0.0010400,140.00
230,0.0010000,160.00
231,0.0009600,160.00
232,0.0009200,160.00
233,0.0008800,160.00
234,0.0008400,160.00
235,0.0008000,160.00
236,0.0007600,160.00
237,0.0007200,140.00
238,0.0006800,160.00
239,0.0006400,160.00
240,0.0006000,160.00
241,0.0005600,160.00
242,0.0005200,160.00
243,0.0004800,160.00
244,0.0004400,180.00
245,0.0004000,160.00
246,0.0003600,180.00
247,0.0003200,180.00
248,0.0002800,200.00
249,0.0002400,180.00
250,0.0002000,200.00
251,0.0001600,180.00
252,0.0001200,200.00
253,0.0000800,180.00
254,0.0000400,200.00
255,0.0000000,160.00
256,-0.0000400,200.00
257,-0.0000800,180.00
258,-0.0001200,200.00
259,-0.0001600,180.00
260,-0.0002000,200.00
261,-0.0002400,200.00
262,-0.0002800,220.00
263,-0.0003200,200.00
264,-0.0003600,220.00
265,-0.0004000,220.00
266,-0.0004400,220.00
267,-0.0004800,220.00
268,-0.0005200,240.00
269,-0.0005600,220.00
270,-0.0006000,240.00
271,-0.0006400,200.00
272,-0.0006800,220.00
273,-0.0007200,200.00
274,-0.0007600,220.00
275,-0.0008000,220.00
276,-0.0008400,220.00
277,-0.0008800,220.00
278,-0.0009200,240.00
279,-0.0009600,220.00
280,-0.0010000,240.00
281,-0.0010400,240.00
282,-0.0010800,260.00
283,-0.0011200,240.00
284,-0.0011600,240.00
285,-0.0012000,240.00
286,-0.0012400,260.00
287,-0.0012800,240.00
288,-0.0013200,260.00
289,-0.0013600,240.00
290,-0.0014000,240.00
291,-0.0014400,240.00
292,-0.0014800,260.00
293,-0.0015200,240.00
294,-0.0015600,260.00
295,-0.0016000,240.00
296,-0.0016400,280.00
297,-0.0016800,260.00
298,-0.0017200,280.00
299,-0.0017600,260.00
300,-0.0018000,280.00
301,-0.0018400,260.00
302,-0.0018800,280.00
303,-0.0019200,260.00
304,-0.0019600,280.00
305,-0.0020000,240.00
306,-0.0020400,300.00
307,-0.0020800,240.00
308,-0.0021200,280.00
309,-0.0021600,260.00
310,-0.0022000,280.00
311,-0.0022400,280.00
312,-0.0022800,300.00
313,-0.0023200,280.00
314,-0.0023600,320.00
315,-0.0024000,280.00
316,-0.0024400,320.00
317,-0.0024800,300.00
318,-0.0025200,320.00
319,-0.0025600,300.00
320,-0.0026000,320.00
321,-0.0026400,300.00
322,-0.0026800,320.00
323,-0.0027200,280.00
324,-0.0027600,320.00
325,-0.0028000,280.00
326,-0.0028400,320.00
327,-0.0028800,300.00
328,-0.0029200,320.00
329,-0.0029600,300.00
330,-0.0030000,320.00
331,-0.0030400,300.00
332,-0.0030800,320.00
333,-0.0031200,320.00
334,-0.0031600,360.00
335,-0.0032000,320.00
336,-0.0032400,340.00
337,-0.0032800,320.00
338,-0.0033200,340.00
339,-0.0033600,320.00
340,-0.0034000,340.00
341,-0.0034400,320.00
342,-0.0034800,360.00
343,-0.0035200,320.00
344,-0.0035600,360.00
345,-0.0036000,320.00
346,-0.0036400,360.00
347,-0.0036800,340.00
348,-0.0037200,360.00
349,-0.0037600,340.00
350,-0.0038000,360.00
351,-0.0038400,340.00
352,-0.0038800,380.00
353,-0.0039200,360.00
354,-0.0039600,380.00
355,-0.0040000,360.00
356,-0.0040400,380.00
357,-0.0040800,360.00
358,-0.0041200,380.00
359,-0.0041600,360.00
360,-0.0042000,380.00
361,-0.0042400,360.00
362,-0.0042800,380.00
363,-0.0043200,360.00
364,-0.0043600,380.00
365,-0.0044000,380.00
366,-0.0044400,380.00
367,-0.0044800,380.00
368,-0.0045200,400.00
369,-0.0045600,380.00
370,-0.0046000,400.00
371,-0.0046400,380.00
372,-0.0046800,400.00
373,-0.0047200,380.00
374,-0.0047600,400.00
375,-0.0048000,380.00
376,-0.0048400,400.00
377,-0.0048800,380.00
378,-0.0049200,400.00
379,-0.0049600,380.00
380,-0.0050000,400.00
381,-0.0050400,400.00
382,-0.0050800,400.00
383,-0.0051200,400.00
384,-0.0051600,440.00
385,-0.0052000,400.00
386,-0.0052400,440.00
387,-0.0052800,420.00
388,-0.0053200,460.00
389,-0.0053600,420.00
390,-0.0054000,440.00
391,-0.0054400,420.00
392,-0.0054800,440.00
393,-0.0055200,400.00
394,-0.0055600,440.00
395,-0.0056000,400.00
396,-0.0056400,440.00
397,-0.0056800,420.00
398,-0.0057200,440.00
399,-0.0057600,440.00
400,-0.0058000,460.00
401,-0.0058400,440.00
402,-0.0058800,460.00
403,-0.0059200,460.00
404,-0.0059600,480.00
405,-0.0060000,460.00
406,-0.0060400,480.00
407,-0.0060800,460.00
408,-0.0061200,480.00
409,-0.0061600,460.00
410,-0.0062000,480.00
411,-0.0062400,460.00
412,-0.0062800,480.00
413,-0.0063200,460.00
414,-0.0063600,480.00
415,-0.0064000,480.00
416,-0.0064400,480.00
417,-0.0064800,480.00
418,-0.0065200,480.00
419,-0.0065600,480.00
420,-0.0066000,480.00
421,-0.0066400,480.00
422,-0.0066800,500.00
423,-0.0067200,480.00
424,-0.0067600,520.00
425,-0.0068000,480.00
426,-0.0068400,520.00
427,-0.0068800,480.00
428,-0.0069200,500.00
429,-0.0069600,480.00
430,-0.0070000,520.00
431,-0.0070400,480.00
432,-0.0070800,520.00
433,-0.0071200,500.00
434,-0.0071600,520.00
435,-0.0072000,520.00
436,-0.0072400,540.00
437,-0.0072800,500.00
438,-0.0073200,540.00
439,-0.0073600,520.00
440,-0.0074000,540.00
441,-0.0074400,520.00
442,-0.0074800,560.00
443,-0.0075200,520.00
444,-0.0075600,540.00
445,-0.0076000,520.00
446,-0.0076400,540.00
447,-0.0076800,520.00
448,-0.0077200,540.00
449,-0.0077600,540.00
450,-0.0078000,540.00
451,-0.0078400,540.00
452,-0.0078800,560.00
453,-0.0079200,540.00
454,-0.0079600,580.00
455,-0.0080000,560.00
456,-0.0080400,580.00
457,-0.0080800,560.00
458,-0.0081200,580.00
459,-0.0081600,560.00
460,-0.0082000,600.00
461,-0.0082400,560.00
462,-0.0082800,600.00
463,-0.0083200,560.00
464,-0.0083600,580.00
465,-0.0084000,560.00
466,-0.0084400,580.00
467,-0.0084800,560.00
468,-0.0085200,600.00
469,-0.0085600,600.00
470,-0.0086000,600.00
471,-0.0086400,600.00
472,-0.0086800,620.00
473,-0.0087200,600.00
474,-0.0087600,620.00
475,-0.0088000,600.00
476,-0.0088400,620.00
477,-0.0088800,600.00
478,-0.0089200,620.00
479,-0.0089600,600.00
480,-0.0090000,620.00
481,-0.0090400,600.00
482,-0.0090800,620.00
483,-0.0091200,600.00
484,-0.0091600,620.00
485,-0.0092000,600.00
486,-0.0092400,640.00
487,-0.0092800,620.00
488,-0.0093200,640.00
489,-0.0093600,620.00
490,-0.0094000,640.00
491,-0.0094400,620.00
492,-0.0094800,640.00
493,-0.0095200,640.00
494,-0.0095600,640.00
495,-0.0096000,640.00
496,-0.0096400,640.00
497,-0.0096800,640.00
498,-0.0097200,640.00
499,-0.0097600,640.00
500,-0.0098000,640.00
501,-0.0098400,640.00
502,-0.0098800,660.00
503,-0.0099200,640.00
504,-0.0099600,660.00
505,-0.0100000,640.00
506,-0.0100400,680.00
507,-0.0100800,660.00
508,-0.0101200,680.00
509,-0.0101600,660.00
510,-0.0102000,680.00
511,-0.0102400,660.00
512,-0.0102800,680.00
513,-0.0103200,660.00
514,-0.0103600,680.00
515,-0.0104000,660.00
516,-0.0104400,680.00
517,-0.0104800,680.00
518,-0.0105200,680.00
519,-0.0105600,680.00
520,-0.0106000,680.00
521,-0.0106400,680.00
522,-0.0106800,700.00
523,-0.0107200,680.00
524,-0.0107600,700.00
525,-0.0108000,700.00
526,-0.0108400,700.00
527,-0.0108800,700.00
528,-0.0109200,700.00
529,-0.0109600,700.00
530,-0.0110000,700.00
531,-0.0110400,700.00
532,-0.0110800,720.00
533,-0.0111200,700.00
534,-0.0111600,700.00
535,-0.0112000,700.00
536,-0.0112400,720.00
537,-0.0112800,700.00
538,-0.0113200,740.00
539,-0.0113600,700.00
540,-0.0114000,720.00
541,-0.0114400,700.00
542,-0.0114800,720.00
543,-0.0115200,720.00
544,-0.0115600,740.00
545,-0.0116000,720.00
546,-0.0116400,740.00
547,-0.0116800,720.00
548,-0.0117200,740.00
549,-0.0117600,720.00
550,-0.0118000,720.00
551,-0.0118400,720.00
552,-0.0118800,740.00
553,-0.0119200,720.00
554,-0.0119600,740.00
555,-0.0120000,720.00
556,-0.0120400,760.00
557,-0.0120800,720.00
558,-0.0121200,760.00
559,-0.0121600,740.00
560,-0.0122000,760.00
561,-0.0122400,760.00
562,-0.0122800,780.00
563,-0.0123200,760.00
564,-0.0123600,780.00
565,-0.0124000,740.00
566,-0.0124400,780.00
567,-0.0124800,760.00
568,-0.0125200,780.00
569,-0.0125600,760.00
570,-0.0126000,760.00
571,-0.0126400,760.00
572,-0.0126800,780.00
573,-0.0127200,760.00
574,-0.0127600,780.00
575,-0.0128000,760.00
576,-0.0128400,800.00
577,-0.0128800,780.00
578,-0.0129200,800.00
579,-0.0129600,780.00
580,-0.0130000,800.00
581,-0.0130400,780.00
582,-0.0130800,800.00
583,-0.0131200,780.00
584,-0.0131600,800.00
585,-0.0132000,780.00
586,-0.0132400,800.00
587,-0.0132800,780.00
588,-0.0133200,800.00
589,-0.0133600,780.00
590,-0.0134000,800.00
591,-0.0134400,800.00
592,-0.0134800,800.00
593,-0.0135200,800.00
594,-0.0135600,820.00
595,-0.0136000,800.00
596,-0.0136400,840.00
597,-0.0136800,800.00
598,-0.0137200,820.00
599,-0.0137600,800.00
600,-0.0138000,840.00
601,-0.0138400,800.00
602,-0.0138800,820.00
603,-0.0139200,800.00
604,-0.0139600,840.00
605,-0.0140000,800.00
606,-0.0140400,840.00
607,-0.0140800,820.00
608,-0.0141200,860.00
609,-0.0141600,800.00
610,-0.0142000,860.00
611,-0.0142400,840.00
612,-0.0142800,860.00
613,-0.0143200,840.00
614,-0.0143600,860.00
615,-0.0144000,840.00
616,-0.0144400,860.00
617,-0.0144800,840.00
618,-0.0145200,860.00
619,-0.0145600,840.00
620,-0.0146000,860.00
621,-0.0146400,840.00
622,-0.0146800,860.00
623,-0.0147200,840.00
624,-0.0147600,860.00
625,-0.0148000,860.00
626,-0.0148400,880.00
627,-0.0148800,860.00
628,-0.0149200,880.00
629,-0.0149600,860.00
630,-0.0150000,880.00
631,-0.0150400,860.00
632,-0.0150800,880.00
633,-0.0151200,880.00
634,-0.0151600,880.00
635,-0.0152000,860.00
636,-0.0152400,880.00
637,-0.0152800,860.00
638,-0.0153200,880.00
639,-0.0153600,880.00
640,-0.0154000,880.00
641,-0.0154400,880.00
642,-0.0154800,920.00
643,-0.0155200,880.00
644,-0.0155600,920.00
645,-0.0156000,880.00
646,-0.0156400,920.00
647,-0.0156800,880.00
648,-0.0157200,920.00
649,-0.0157600,900.00
650,-0.0158000,920.00
651,-0.0158400,900.00
652,-0.0158800,920.00
653,-0.0159200,900.00
654,-0.0159600,920.00
655,-0.0160000,900.00
656,-0.0160400,920.00
657,-0.0160800,900.00
658,-0.0161200,920.00
659,-0.0161600,920.00
660,-0.0162000,940.00
661,-0.0162400,920.00
662,-0.0162800,940.00
663,-0.0163200,940.00
664,-0.0163600,960.00
665,-0.0164000,920.00
666,-0.0164400,960.00
667,-0.0164800,920.00
668,-0.0165200,960.00
669,-0.0165600,920.00
670,-0.0166000,940.00
671,-0.0166400,920.00
672,-0.0166800,960.00
673,-0.0167200,940.00
674,-0.0167600,960.00
675,-0.0168000,940.00
676,-0.0168400,960.00
677,-0.0168800,940.00
678,-0.0169200,960.00
679,-0.0169600,960.00
680,-0.0170000,960.00
681,-0.0170400,960.00
682,-0.0170800,980.00
683,-0.0171200,960.00
684,-0.0171600,980.00
685,-0.0172000,960.00
686,-0.0172400,1000.00
687,-0.0172800,960.00
688,-0.0173200,980.00
689,-0.0173600,960.00
690,-0.0174000,980.00
691,-0.0174400,960.00
692,-0.0174800,1000.00
693,-0.0175200,960.00
694,-0.0175600,1000.00
695,-0.0176000,960.00
696,-0.0176400,1020.00
697,-0.0176800,980.00
698,-0.0177200,1000.00
699,-0.0177600,1000.00
700,-0.0178000,1020.00
701,-0.0178400,1000.00
702,-0.0178800,1020.00
703,-0.0179200,1000.00
704,-0.0179600,1020.00
705,-0.0180000,960.00
706,-0.0180400,1020.00
707,-0.0180800,1000.00
708,-0.0181200,1020.00
709,-0.0181600,1000.00
710,-0.0182000,1020.00
711,-0.0182400,1020.00
712,-0.0182800,1020.00
713,-0.0183200,1020.00
714,-0.0183600,1040.00
715,-0.0184000,1020.00
716,-0.0184400,1040.00
717,-0.0184800,1020.00
718,-0.0185200,1040.00
719,-0.0185600,1020.00
720,-0.0186000,1040.00
721,-0.0186400,1020.00
722,-0.0186800,1040.00
723,-0.0187200,1020.00
724,-0.0187600,1040.00
725,-0.0188000,1020.00
726,-0.0188400,1060.00
727,-0.0188800,1020.00
728,-0.0189200,1040.00
729,-0.0189600,1040.00
730,-0.0190000,1060.00
731,-0.0190400,1040.00
732,-0.0190800,1080.00
733,-0.0191200,1040.00
734,-0.0191600,1080.00
735,-0.0192000,1060.00
736,-0.0192400,1080.00
737,-0.0192800,1040.00
738,-0.0193200,1080.00
739,-0.0193600,1040.00
740,-0.0194000,1080.00
741,-0.0194400,1060.00
742,-0.0194800,1080.00
743,-0.0195200,1040.00
744,-0.0195600,1080.00
745,-0.0196000,1060.00
746,-0.0196400,1080.00
747,-0.0196800,1060.00
748,-0.0197200,1100.00
749,-0.0197600,1080.00
750,-0.0198000,1100.00
751,-0.0198400,1080.00
752,-0.0198800,1100.00
753,-0.0199200,1080.00
754,-0.0199600,1100.00
755,-0.0200000,1080.00
756,-0.0200400,1100.00
757,-0.0200800,1080.00
758,-0.0201200,1120.00
759,-0.0201600,1080.00
760,-0.0202000,1100.00
761,-0.0202400,1080.00
762,-0.0202800,1120.00
763,-0.0203200,1080.00
764,-0.0203600,1100.00
765,-0.0204000,1100.00
766,-0.0204400,1120.00
767,-0.0204800,1120.00
768,-0.0205200,1120.00
769,-0.0205600,1120.00
770,-0.0206000,1120.00
771,-0.0206400,1120.00
772,-0.0206800,1120.00
773,-0.0207200,1120.00
774,-0.0207600,1120.00
775,-0.0208000,1100.00
776,-0.0208400,1120.00
777,-0.0208800,1120.00
778,-0.0209200,1120.00
779,-0.0209600,1120.00
780,-0.0210000,1120.00
781,-0.0210400,1120.00
782,-0.0210800,1140.00
783,-0.0211200,1120.00
784,-0.0211600,1160.00
785,-0.0212000,1120.00
786,-0.0212400,1160.00
787,-0.0212800,1120.00
788,-0.0213200,1160.00
789,-0.0213600,1120.00
790,-0.0214000,1160.00
791,-0.0214400,1120.00
792,-0.0214800,1160.00
793,-0.0215200,1120.00
794,-0.0215600,1140.00
795,-0.0216000,1120.00
796,-0.0216400,1160.00
797,-0.0216800,1140.00
798,-0.0217200,1160.00
799,-0.0217600,1140.00
800,-0.0218000,1180.00
801,-0.0218400,1160.00
802,-0.0218800,1180.00
803,-0.0219200,1160.00
804,-0.0219600,1180.00
805,-0.0220000,1160.00
806,-0.0220400,1180.00
807,-0.0220800,1160.00
808,-0.0221200,1180.00
809,-0.0221600,1160.00
810,-0.0222000,1180.00
811,-0.0222400,1160.00
812,-0.0222800,1180.00
813,-0.0223200,1160.00
814,-0.0223600,1180.00
815,-0.0224000,1180.00
816,-0.0224400,1200.00
817,-0.0224800,1180.00
818,-0.0225200,1180.00
819,-0.0225600,1180.00
820,-0.0226000,1200.00
821,-0.0226400,1180.00
822,-0.0226800,1200.00
823,-0.0227200,1180.00
824,-0.0227600,1200.00
825,-0.0228000,1180.00
826,-0.0228400,1200.00
827,-0.0228800,1180.00
828,-0.0229200,1200.00
829,-0.0229600,1180.00
830,-0.0230000,1200.00
831,-0.0230400,1180.00
832,-0.0230800,1200.00
833,-0.0231200,1180.00
834,-0.0231600,1220.00
835,-0.0232000,1200.00
836,-0.0232400,1220.00
837,-0.0232800,1200.00
838,-0.0233200,1220.00
839,-0.0233600,1200.00
840,-0.0234000,1220.00
841,-0.0234400,1200.00
842,-0.0234800,1240.00
843,-0.0235200,1200.00
844,-0.0235600,1220.00
845,-0.0236000,1200.00
846,-0.0236400,1220.00
847,-0.0236800,1200.00
848,-0.0237200,1240.00
849,-0.0237600,1220.00
850,-0.0238000,1240.00
851,-0.0238400,1220.00
852,-0.0238800,1240.00
853,-0.0239200,1220.00
854,-0.0239600,1260.00
855,-0.0240000,1240.00
856,-0.0240400,1260.00
857,-0.0240800,1240.00
858,-0.0241200,1260.00
859,-0.0241600,1240.00
860,-0.0242000,1240.00
861,-0.0242400,1240.00
862,-0.0242800,1260.00
863,-0.0243200,1240.00
864,-0.0243600,1260.00
865,-0.0244000,1240.00
866,-0.0244400,1240.00
867,-0.0244800,1240.00
868,-0.0245200,1260.00
869,-0.0245600,1240.00
870,-0.0246000,1260.00
871,-0.0246400,1260.00
872,-0.0246800,1280.00
873,-0.0247200,1260.00
874,-0.0247600,1280.00
875,-0.0248000,1260.00
876,-0.0248400,1280.00
877,-0.0248800,1260.00
878,-0.0249200,1280.00
879,-0.0249600,1260.00
880,-0.0250000,1280.00
881,-0.0250400,1260.00
882,-0.0250800,1280.00
883,-0.0251200,1260.00
884,-0.0251600,1280.00
885,-0.0252000,1260.00
886,-0.0252400,1280.00
887,-0.0252800,1280.00
888,-0.0253200,1280.00
889,-0.0253600,1280.00
890,-0.0254000,1280.00
891,-0.0254400,1280.00
892,-0.0254800,1300.00
893,-0.0255200,1280.00
894,-0.0255600,1300.00
895,-0.0256000,1280.00
896,-0.0256400,1280.00
897,-0.0256800,1280.00
898,-0.0257200,1300.00
899,-0.0257600,1280.00
900,-0.0258000,1300.00
901,-0.0258400,1280.00
902,-0.0258800,1300.00
903,-0.0259200,1280.00
904,-0.0259600,1320.00
905,-0.0260000,1300.00
906,-0.0260400,1320.00
907,-0.0260800,1300.00
908,-0.0261200,1320.00
909,-0.0261600,1300.00
910,-0.0262000,1320.00
911,-0.0262400,1320.00
912,-0.0262800,1320.00
913,-0.0263200,1300.00
914,-0.0263600,1320.00
915,-0.0264000,1280.00
916,-0.0264400,1320.00
917,-0.0264800,1300.00
918,-0.0265200,1340.00
919,-0.0265600,1300.00
920,-0.0266000,1340.00
921,-0.0266400,1320.00
922,-0.0266800,1340.00
923,-0.0267200,1320.00
924,-0.0267600,1340.00
925,-0.0268000,1320.00
926,-0.0268400,1360.00
927,-0.0268800,1340.00
928,-0.0269200,1360.00
929,-0.0269600,1320.00
930,-0.0270000,1340.00
931,-0.0270400,1320.00
932,-0.0270800,1340.00
933,-0.0271200,1340.00
934,-0.0271600,1360.00
935,-0.0272000,1340.00
936,-0.0272400,1360.00
937,-0.0272800,1340.00
938,-0.0273200,1360.00
939,-0.0273600,1340.00
940,-0.0274000,1360.00
941,-0.0274400,1340.00
942,-0.0274800,1360.00
943,-0.0275200,1360.00
944,-0.0275600,1380.00
945,-0.0276000,1360.00
946,-0.0276400,1360.00
947,-0.0276800,1340.00
948,-0.0277200,1380.00
949,-0.0277600,1360.00
950,-0.0278000,1380.00
951,-0.0278400,1360.00
952,-0.0278800,1380.00
953,-0.0279200,1360.00
954,-0.0279600,1400.00
955,-0.0280000,1360.00
956,-0.0280400,1400.00
957,-0.0280800,1380.00
958,-0.0281200,1400.00
959,-0.0281600,1380.00
960,-0.0282000,1400.00
961,-0.0282400,1380.00
962,-0.0282800,1400.00
963,-0.0283200,1360.00
964,-0.0283600,1400.00
965,-0.0284000,1380.00
966,-0.0284400,1400.00
967,-0.0284800,1380.00
968,-0.0285200,1400.00
969,-0.0285600,1400.00
970,-0.0286000,1420.00
971,-0.0286400,1400.00
972,-0.0286800,1420.00
973,-0.0287200,1400.00
974,-0.0287600,1420.00
975,-0.0288000,1420.00
976,-0.0288400,1440.00
977,-0.0288800,1420.00
978,-0.0289200,1420.00
979,-0.0289600,1420.00
980,-0.0290000,1440.00
981,-0.0290400,1420.00
982,-0.0290800,1440.00
983,-0.0291200,1420.00
984,-0.0291600,1440.00
985,-0.0292000,1420.00
986,-0.0292400,1440.00
987,-0.0292800,1420.00
988,-0.0293200,1440.00
989,-0.0293600,1440.00
990,-0.0294000,1440.00
991,-0.0294400,1420.00
992,-0.0294800,1460.00
993,-0.0295200,1440.00
994,-0.0295600,1460.00
995,-0.0296000,1440.00
996,-0.0296400,1460.00
997,-0.0296800,1440.00
998,-0.0297200,1460.00
999,-0.0297600,1440.00
1000,-0.0298000,1440.00
1001,-0.0298400,1440.00
1002,-0.0298800,1460.00
1003,-0.0299200,1440.00
1004,-0.0299600,1460.00
1005,-0.0300000,1440.00
1006,-0.0300400,1480.00
1007,-0.0300800,1460.00
1008,-0.0301200,1480.00
1009,-0.0301600,1460.00
1010,-0.0302000,1480.00
1011,-0.0302400,1460.00
1012,-0.0302800,1500.00
1013,-0.0303200,1460.00
1014,-0.0303600,1480.00
1015,-0.0304000,1460.00
1016,-0.0304400,1480.00
1017,-0.0304800,1440.00
1018,-0.0305200,1480.00
1019,-0.0305600,1460.00
1020,-0.0306000,1500.00
1021,-0.0306400,1460.00
1022,-0.0306800,1480.00
1023,-0.0307200,1480.00
1024,-0.0307600,1500.00
1025,-0.0308000,1480.00
1026,-0.0308400,1500.00
1027,-0.0308800,1500.00
1028,-0.0309200,1500.00
1029,-0.0309600,1500.00
1030,-0.0310000,1500.00
1031,-0.0310400,1500.00
1032,-0.0310800,1520.00
1033,-0.0311200,1500.00
1034,-0.0311600,1520.00
1035,-0.0312000,1480.00
1036,-0.0312400,1500.00
1037,-0.0312800,1500.00
1038,-0.0313200,1520.00
1039,-0.0313600,1500.00
1040,-0.0314000,1520.00
1041,-0.0314400,1500.00
1042,-0.0314800,1520.00
1043,-0.0315200,1500.00
1044,-0.0315600,1520.00
1045,-0.0316000,1520.00
1046,-0.0316400,1540.00
1047,-0.0316800,1520.00
1048,-0.0317200,1540.00
1049,-0.0317600,1500.00
1050,-0.0318000,1520.00
1051,-0.0318400,1500.00
1052,-0.0318800,1520.00
1053,-0.0319200,1500.00
1054,-0.0319600,1540.00
1055,-0.0320000,1520.00
1056,-0.0320400,1540.00
1057,-0.0320800,1520.00
1058,-0.0321200,1540.00
1059,-0.0321600,1520.00
1060,-0.0322000,1540.00
1061,-0.0322400,1520.00
1062,-0.0322800,1560.00
1063,-0.0323200,1520.00
1064,-0.0323600,1560.00
1065,-0.0324000,1540.00
1066,-0.0324400,1560.00
1067,-0.0324800,1520.00
1068,-0.0325200,1560.00
1069,-0.0325600,1520.00
1070,-0.0326000,1540.00
1071,-0.0326400,1520.00
1072,-0.0326800,1560.00
1073,-0.0327200,1520.00
1074,-0.0327600,1560.00
1075,-0.0328000,1540.00
1076,-0.0328400,1560.00
1077,-0.0328800,1540.00
1078,-0.0329200,1560.00
1079,-0.0329600,1540.00
1080,-0.0330000,1580.00
1081,-0.0330400,1560.00
1082,-0.0330800,1580.00
1083,-0.0331200,1540.00
1084,-0.0331600,1580.00
1085,-0.0332000,1540.00
1086,-0.0332400,1560.00
1087,-0.0332800,1540.00
1088,-0.0333200,1560.00
1089,-0.0333600,1560.00
1090,-0.0334000,1580.00
1091,-0.0334400,1560.00
1092,-0.0334800,1580.00
1093,-0.0335200,1560.00
1094,-0.0335600,1580.00
1095,-0.0336000,1560.00
1096,-0.0336400,1600.00
1097,-0.0336800,1560.00
1098,-0.0337200,1600.00
1099,-0.0337600,1580.00
1100,-0.0338000,1600.00
1101,-0.0338400,1560.00
1102,-0.0338800,1600.00
1103,-0.0339200,1560.00
1104,-0.0339600,1580.00
1105,-0.0340000,1580.00
1106,-0.0340400,1580.00
1107,-0.0340800,1580.00
1108,-0.0341200,1600.00
1109,-0.0341600,1580.00
1110,-0.0342000,1600.00
1111,-0.0342400,1580.00
1112,-0.0342800,1600.00
1113,-0.0343200,1580.00
1114,-0.0343600,1600.00
1115,-0.0344000,1600.00
1116,-0.0344400,1600.00
1117,-0.0344800,1600.00
1118,-0.0345200,1600.00
1119,-0.0345600,1600.00
1120,-0.0346000,1600.00
1121,-0.0346400,1600.00
1122,-0.0346800,1600.00
1123,-0.0347200,1580.00
1124,-0.0347600,1600.00
1125,-0.0348000,1600.00
1126,-0.0348400,1620.00
1127,-0.0348800,1600.00
1128,-0.0349200,1620.00
1129,-0.0349600,1600.00
1130,-0.0350000,1640.00
1131,-0.0350400,1600.00
1132,-0.0350800,1640.00
1133,-0.0351200,1600.00
1134,-0.0351600,1620.00
1135,-0.0352000,1600.00
1136,-0.0352400,1640.00
1137,-0.0352800,1600.00
1138,-0.0353200,1640.00
1139,-0.0353600,1600.00
1140,-0.0354000,1620.00
1141,-0.0354400,1600.00
1142,-0.0354800,1640.00
1143,-0.0355200,1600.00
1144,-0.0355600,1640.00
1145,-0.0356000,1620.00
1146,-0.0356400,1640.00
1147,-0.0356800,1620.00
1148,-0.0357200,1640.00
1149,-0.0357600,1640.00
1150,-0.0358000,1660.00
1151,-0.0358400,1640.00
1152,-0.0358800,1660.00
1153,-0.0359200,1640.00
1154,-0.0359600,1660.00
1155,-0.0360000,1640.00
1156,-0.0360400,1660.00
1157,-0.0360800,1640.00
1158,-0.0361200,1640.00
1159,-0.0361600,1640.00
1160,-0.0362000,1660.00
1161,-0.0362400,1640.00
1162,-0.0362800,1660.00
1163,-0.0363200,1640.00
1164,-0.0363600,1660.00
1165,-0.0364000,1640.00
1166,-0.0364400,1660.00
1167,-0.0364800,1640.00
1168,-0.0365200,1680.00
1169,-0.0365600,1660.00
1170,-0.0366000,1680.00
1171,-0.0366400,1640.00
1172,-0.0366800,1660.00
1173,-0.0367200,1640.00
1174,-0.0367600,1660.00
1175,-0.0368000,1640.00
1176,-0.0368400,1660.00
1177,-0.0368800,1660.00
1178,-0.0369200,1680.00
1179,-0.0369600,1660.00
1180,-0.0370000,1680.00
1181,-0.0370400,1660.00
1182,-0.0370800,1680.00
1183,-0.0371200,1660.00
1184,-0.0371600,1680.00
1185,-0.0372000,1660.00
1186,-0.0372400,1680.00
1187,-0.0372800,1660.00
1188,-0.0373200,1700.00
1189,-0.0373600,1660.00
1190,-0.0374000,1680.00
1191,-0.0374400,1660.00
1192,-0.0374800,1680.00
1193,-0.0375200,1660.00
1194,-0.0375600,1680.00
1195,-0.0376000,1660.00
1196,-0.0376400,1680.00
1197,-0.0376800,1660.00
1198,-0.0377200,1680.00
1199,-0.0377600,1680.00
1200,-0.0378000,1700.00
1201,-0.0378400,1680.00
1202,-0.0378800,1720.00
1203,-0.0379200,1680.00
1204,-0.0379600,1720.00
1205,-0.0380000,1680.00
1206,-0.0380400,1720.00
1207,-0.0380800,1680.00
1208,-0.0381200,1700.00
1209,-0.0381600,1680.00
1210,-0.0382000,1700.00
1211,-0.0382400,1680.00
1212,-0.0382800,1700.00
1213,-0.0383200,1680.00
1214,-0.0383600,1700.00
1215,-0.0384000,1700.00
1216,-0.0384400,1720.00
1217,-0.0384800,1700.00
1218,-0.0385200,1740.00
1219,-0.0385600,1700.00
1220,-0.0386000,1720.00
1221,-0.0386400,1700.00
1222,-0.0386800,1720.00
1223,-0.0387200,1700.00
1224,-0.0387600,1720.00
1225,-0.0388000,1700.00
1226,-0.0388400,1720.00
1227,-0.0388800,1700.00
1228,-0.0389200,1720.00
1229,-0.0389600,1680.00
1230,-0.0390000,1720.00
1231,-0.0390400,1700.00
1232,-0.0390800,1740.00
1233,-0.0391200,1720.00
1234,-0.0391600,1740.00
1235,-0.0392000,1720.00
1236,-0.0392400,1740.00
1237,-0.0392800,1720.00
1238,-0.0393200,1740.00
1239,-0.0393600,1720.00
1240,-0.0394000,1740.00
1241,-0.0394400,1720.00
1242,-0.0394800,1740.00
1243,-0.0395200,1720.00
1244,-0.0395600,1740.00
1245,-0.0396000,1700.00
1246,-0.0396400,1740.00
1247,-0.0396800,1720.00
1248,-0.0397200,1740.00
1249,-0.0397600,1720.00
1250,-0.0398000,1760.00
1251,-0.0398400,1720.00
1252,-0.0398800,1760.00
1253,-0.0399200,1740.00
1254,-0.0399600,1760.00
1255,-0.0400000,1720.00
1256,-0.0400400,1760.00
1257,-0.0400800,1740.00
1258,-0.0401200,1760.00
1259,-0.0401600,1720.00
1260,-0.0402000,1740.00
1261,-0.0402400,1720.00
1262,-0.0402800,1760.00
1263,-0.0403200,1740.00
1264,-0.0403600,1740.00
1265,-0.0404000,1720.00
1266,-0.0404400,1760.00
1267,-0.0404800,1740.00
1268,-0.0405200,1760.00
1269,-0.0405600,1740.00
1270,-0.0406000,1760.00
1271,-0.0406400,1740.00
1272,-0.0406800,1760.00
1273,-0.0407200,1740.00
1274,-0.0407600,1760.00
1275,-0.0408000,1740.00
1276,-0.0408400,1760.00
1277,-0.0408800,1740.00
1278,-0.0409200,1760.00
1279,-0.0409600,1740.00
1280,-0.0410000,1760.00
1281,-0.0410400,1740.00
1282,-0.0410800,1760.00
1283,-0.0411200,1760.00
1284,-0.0411600,1760.00
1285,-0.0412000,1740.00
1286,-0.0412400,1760.00
1287,-0.0412800,1760.00
1288,-0.0413200,1760.00
1289,-0.0413600,1760.00
1290,-0.0414000,1780.00
1291,-0.0414400,1760.00
1292,-0.0414800,1780.00
1293,-0.0415200,1760.00
1294,-0.0415600,1760.00
1295,-0.0416000,1760.00
1296,-0.0416400,1760.00
1297,-0.0416800,1760.00
1298,-0.0417200,1760.00
1299,-0.0417600,1760.00
1300,-0.0418000,1760.00
1301,-0.0418400,1760.00
1302,-0.0418800,1760.00
1303,-0.0419200,1760.00
1304,-0.0419600,1780.00
1305,-0.0420000,1760.00
1306,-0.0420400,1780.00
1307,-0.0420800,1760.00
1308,-0.0421200,1780.00
1309,-0.0421600,1760.00
1310,-0.0422000,1800.00
1311,-0.0422400,1760.00
1312,-0.0422800,1780.00
1313,-0.0423200,1760.00
1314,-0.0423600,1780.00
1315,-0.0424000,1760.00
1316,-0.0424400,1800.00
1317,-0.0424800,1760.00
1318,-0.0425200,1800.00
1319,-0.0425600,1760.00
1320,-0.0426000,1800.00
1321,-0.0426400,1780.00
1322,-0.0426800,1800.00
1323,-0.0427200,1780.00
1324,-0.0427600,1800.00
1325,-0.0428000,1800.00
1326,-0.0428400,1800.00
1327,-0.0428800,1780.00
1328,-0.0429200,1800.00
1329,-0.0429600,1760.00
1330,-0.0430000,1800.00
1331,-0.0430400,1760.00
1332,-0.0430800,1800.00
1333,-0.0431200,1780.00
1334,-0.0431600,1800.00
1335,-0.0432000,1800.00
1336,-0.0432400,1800.00
1337,-0.0432800,1780.00
1338,-0.0433200,1800.00
1339,-0.0433600,1800.00
1340,-0.0434000,1820.00
1341,-0.0434400,1800.00
1342,-0.0434800,1820.00
1343,-0.0435200,1800.00
1344,-0.0435600,1820.00
1345,-0.0436000,1780.00
1346,-0.0436400,1800.00
1347,-0.0436800,1800.00
1348,-0.0437200,1800.00
1349,-0.0437600,1800.00
1350,-0.0438000,1820.00
1351,-0.0438400,1800.00
1352,-0.0438800,1820.00
1353,-0.0439200,1800.00
1354,-0.0439600,1820.00
1355,-0.0440000,1800.00
1356,-0.0440400,1820.00
1357,-0.0440800,1820.00
1358,-0.0441200,1820.00
1359,-0.0441600,1820.00
1360,-0.0442000,1820.00
1361,-0.0442400,1800.00
1362,-0.0442800,1820.00
1363,-0.0443200,1800.00
1364,-0.0443600,1820.00
1365,-0.0444000,1800.00
1366,-0.0444400,1820.00
1367,-0.0444800,1800.00
1368,-0.0445200,1820.00
1369,-0.0445600,1820.00
1370,-0.0446000,1840.00
1371,-0.0446400,1800.00
1372,-0.0446800,1820.00
1373,-0.0447200,1820.00
1374,-0.0447600,1840.00
1375,-0.0448000,1820.00
1376,-0.0448400,1840.00
1377,-0.0448800,1820.00
1378,-0.0449200,1840.00
1379,-0.0449600,1820.00
1380,-0.0450000,1840.00
1381,-0.0450400,1820.00
1382,-0.0450800,1820.00
1383,-0.0451200,1820.00
1384,-0.0451600,1840.00
1385,-0.0452000,1820.00
1386,-0.0452400,1840.00
1387,-0.0452800,1840.00
1388,-0.0453200,1860.00
1389,-0.0453600,1840.00
1390,-0.0454000,1860.00
1391,-0.0454400,1840.00
1392,-0.0454800,1860.00
1393,-0.0455200,1840.00
1394,-0.0455600,1860.00
1395,-0.0456000,1840.00
1396,-0.0456400,1860.00
1397,-0.0456800,1820.00
1398,-0.0457200,1860.00
1399,-0.0457600,1840.00
1400,-0.0458000,1860.00
1401,-0.0458400,1840.00
1402,-0.0458800,1880.00
1403,-0.0459200,1840.00
1404,-0.0459600,1880.00
1405,-0.0460000,1840.00
1406,-0.0460400,1880.00
1407,-0.0460800,1860.00
1408,-0.0461200,1880.00
1409,-0.0461600,1860.00
1410,-0.0462000,1900.00
1411,-0.0462400,1880.00
1412,-0.0462800,1880.00
1413,-0.0463200,1860.00
1414,-0.0463600,1880.00
1415,-0.0464000,1840.00
1416,-0.0464400,1880.00
1417,-0.0464800,1840.00
1418,-0.0465200,1880.00
1419,-0.0465600,1860.00
1420,-0.0466000,1880.00
1421,-0.0466400,1860.00
1422,-0.0466800,1900.00
1423,-0.0467200,1860.00
1424,-0.0467600,1900.00
1425,-0.0468000,1880.00
1426,-0.0468400,1900.00
1427,-0.0468800,1880.00
1428,-0.0469200,1900.00
1429,-0.0469600,1880.00
1430,-0.0470000,1900.00
1431,-0.0470400,1860.00
1432,-0.0470800,1900.00
1433,-0.0471200,1860.00
1434,-0.0471600,1900.00
1435,-0.0472000,1860.00
1436,-0.0472400,1900.00
1437,-0.0472800,1880.00
1438,-0.0473200,1900.00
1439,-0.0473600,1880.00
1440,-0.0474000,1900.00
1441,-0.0474400,1880.00
1442,-0.0474800,1900.00
1443,-0.0475200,1880.00
1444,-0.0475600,1900.00
1445,-0.0476000,1900.00
1446,-0.0476400,1920.00
1447,-0.0476800,1900.00
1448,-0.0477200,1920.00
1449,-0.0477600,1880.00
1450,-0.0478000,1900.00
1451,-0.0478400,1880.00
1452,-0.0478800,1920.00
1453,-0.0479200,1880.00
1454,-0.0479600,1920.00
1455,-0.0480000,1880.00
1456,-0.0480400,1920.00
1457,-0.0480800,1900.00
1458,-0.0481200,1920.00
1459,-0.0481600,1900.00
1460,-0.0482000,1920.00
1461,-0.0482400,1900.00
1462,-0.0482800,1920.00
1463,-0.0483200,1900.00
1464,-0.0483600,1920.00
1465,-0.0484000,1900.00
1466,-0.0484400,1920.00
1467,-0.0484800,1880.00
1468,-0.0485200,1920.00
1469,-0.0485600,1880.00
1470,-0.0486000,1900.00
1471,-0.0486400,1880.00
1472,-0.0486800,1900.00
1473,-0.0487200,1880.00
1474,-0.0487600,1900.00
1475,-0.0488000,1860.00
1476,-0.0488400,1900.00
1477,-0.0488800,1880.00
1478,-0.0489200,1880.00
1479,-0.0489600,1860.00
1480,-0.0490000,1880.00
1481,-0.0490400,1840.00
1482,-0.0490800,1880.00
1483,-0.0491200,1820.00
1484,-0.0491600,1860.00
1485,-0.0492000,1820.00
1486,-0.0492400,1840.00
1487,-0.0492800,1800.00
1488,-0.0493200,1820.00
1489,-0.0493600,1780.00
1490,-0.0494000,1800.00
1491,-0.0494400,1760.00
1492,-0.0494800,1820.00
1493,-0.0495200,1780.00
1494,-0.0495600,1800.00
1495,-0.0496000,1760.00
1496,-0.0496400,1800.00
1497,-0.0496800,1760.00
1498,-0.0497200,1780.00
1499,-0.0497600,1740.00
1500,-0.0498000,1760.00
1501,-0.0498400,1720.00
1502,-0.0498800,1740.00
1503,-0.0499200,1700.00
1504,-0.0499600,1720.00
1505,-0.0500000,1680.00
1506,-0.0500400,1720.00
1507,-0.0500800,1660.00
1508,-0.0501200,1700.00
1509,-0.0501600,1660.00
1510,-0.0502000,1680.00
1511,-0.0502400,1660.00
1512,-0.0502800,1680.00
1513,-0.0503200,1640.00
1514,-0.0503600,1660.00
1515,-0.0504000,1620.00
1516,-0.0504400,1640.00
1517,-0.0504800,1600.00
1518,-0.0505200,1620.00
1519,-0.0505600,1600.00
1520,-0.0506000,1600.00
1521,-0.0506400,1580.00
1522,-0.0506800,1600.00
1523,-0.0507200,1560.00
1524,-0.0507600,1580.00
1525,-0.0508000,1560.00
1526,-0.0508400,1580.00
1527,-0.0508800,1540.00
1528,-0.0509200,1580.00
1529,-0.0509600,1540.00
1530,-0.0510000,1560.00
1531,-0.0510400,1520.00
1532,-0.0510800,1560.00
1533,-0.0511200,1500.00
1534,-0.0511600,1520.00
1535,-0.0512000,1480.00
1536,-0.0512400,1500.00
1537,-0.0512800,1480.00
1538,-0.0513200,1500.00
1539,-0.0513600,1440.00
1540,-0.0514000,1480.00
1541,-0.0514400,1440.00
1542,-0.0514800,1480.00
1543,-0.0515200,1440.00
1544,-0.0515600,1460.00
1545,-0.0516000,1420.00
1546,-0.0516400,1440.00
1547,-0.0516800,1400.00
1548,-0.0517200,1440.00
1549,-0.0517600,1400.00
1550,-0.0518000,1440.00
1551,-0.0518400,1380.00
1552,-0.0518800,1420.00
1553,-0.0519200,1360.00
1554,-0.0519600,1400.00
1555,-0.0520000,1340.00
1556,-0.0520400,1380.00
1557,-0.0520800,1340.00
1558,-0.0521200,1360.00
1559,-0.0521600,1340.00
1560,-0.0522000,1360.00
1561,-0.0522400,1340.00
1562,-0.0522800,1340.00
1563,-0.0523200,1320.00
1564,-0.0523600,1340.00
1565,-0.0524000,1320.00
1566,-0.0524400,1340.00
1567,-0.0524800,1320.00
1568,-0.0525200,1320.00
1569,-0.0525600,1280.00
1570,-0.0526000,1320.00
1571,-0.0526400,1280.00
1572,-0.0526800,1300.00
1573,-0.0527200,1260.00
1574,-0.0527600,1280.00
1575,-0.0528000,1240.00
1576,-0.0528400,1280.00
1577,-0.0528800,1240.00
1578,-0.0529200,1280.00
1579,-0.0529600,1240.00
1580,-0.0530000,1260.00
1581,-0.0530400,1200.00
1582,-0.0530800,1240.00
1583,-0.0531200,1200.00
1584,-0.0531600,1240.00
1585,-0.0532000,1200.00
1586,-0.0532400,1240.00
1587,-0.0532800,1180.00
1588,-0.0533200,1220.00
1589,-0.0533600,1180.00
1590,-0.0534000,1200.00
1591,-0.0534400,1160.00
1592,-0.0534800,1180.00
1593,-0.0535200,1160.00
1594,-0.0535600,1180.00
1595,-0.0536000,1140.00
1596,-0.0536400,1180.00
1597,-0.0536800,1140.00
1598,-0.0537200,1160.00
1599,-0.0537600,1140.00
1600,-0.0538000,1160.00
1601,-0.0538400,1120.00
1602,-0.0538800,1140.00
1603,-0.0539200,1120.00
1604,-0.0539600,1120.00
1605,-0.0540000,1100.00
1606,-0.0540400,1120.00
1607,-0.0540800,1100.00
1608,-0.0541200,1120.00
1609,-0.0541600,1080.00
1610,-0.0542000,1100.00
1611,-0.0542400,1080.00
1612,-0.0542800,1080.00
1613,-0.0543200,1060.00
1614,-0.0543600,1100.00
1615,-0.0544000,1060.00
1616,-0.0544400,1080.00
1617,-0.0544800,1040.00
1618,-0.0545200,1080.00
1619,-0.0545600,1040.00
1620,-0.0546000,1060.00
1621,-0.0546400,1020.00
1622,-0.0546800,1040.00
1623,-0.0547200,1020.00
1624,-0.0547600,1040.00
1625,-0.0548000,1000.00
1626,-0.0548400,1020.00
1627,-0.0548800,1000.00
1628,-0.0549200,1020.00
1629,-0.0549600,1000.00
1630,-0.0550000,1020.00
1631,-0.0550400,1000.00
1632,-0.0550800,1000.00
1633,-0.0551200,980.00
1634,-0.0551600,1000.00
1635,-0.0552000,960.00
1636,-0.0552400,1000.00
1637,-0.0552800,960.00
1638,-0.0553200,1000.00
1639,-0.0553600,960.00
1640,-0.0554000,960.00
1641,-0.0554400,940.00
1642,-0.0554800,960.00
1643,-0.0555200,940.00
1644,-0.0555600,960.00
1645,-0.0556000,920.00
1646,-0.0556400,960.00
1647,-0.0556800,920.00
1648,-0.0557200,960.00
1649,-0.0557600,920.00
1650,-0.0558000,940.00
1651,-0.0558400,920.00
1652,-0.0558800,940.00
1653,-0.0559200,900.00
1654,-0.0559600,920.00
1655,-0.0560000,900.00
1656,-0.0560400,920.00
1657,-0.0560800,860.00
1658,-0.0561200,900.00
1659,-0.0561600,860.00
1660,-0.0562000,880.00
1661,-0.0562400,860.00
1662,-0.0562800,880.00
1663,-0.0563200,860.00
1664,-0.0563600,880.00
1665,-0.0564000,860.00
1666,-0.0564400,880.00
1667,-0.0564800,840.00
1668,-0.0565200,860.00
1669,-0.0565600,840.00
1670,-0.0566000,860.00
1671,-0.0566400,840.00
1672,-0.0566800,860.00
1673,-0.0567200,800.00
1674,-0.0567600,840.00
1675,-0.0568000,800.00
1676,-0.0568400,820.00
1677,-0.0568800,800.00
1678,-0.0569200,800.00
1679,-0.0569600,800.00
1680,-0.0570000,800.00
1681,-0.0570400,780.00
1682,-0.0570800,800.00
1683,-0.0571200,780.00
1684,-0.0571600,800.00
1685,-0.0572000,760.00
1686,-0.0572400,800.00
1687,-0.0572800,780.00
1688,-0.0573200,800.00
1689,-0.0573600,780.00
1690,-0.0574000,780.00
1691,-0.0574400,760.00
1692,-0.0574800,760.00
1693,-0.0575200,740.00
1694,-0.0575600,780.00
1695,-0.0576000,740.00
1696,-0.0576400,760.00
1697,-0.0576800,720.00
1698,-0.0577200,760.00
1699,-0.0577600,720.00
1700,-0.0578000,760.00
1701,-0.0578400,720.00
1702,-0.0578800,740.00
1703,-0.0579200,720.00
1704,-0.0579600,740.00
1705,-0.0580000,720.00
1706,-0.0580400,720.00
1707,-0.0580800,700.00
1708,-0.0581200,720.00
1709,-0.0581600,700.00
1710,-0.0582000,720.00
1711,-0.0582400,680.00
1712,-0.0582800,700.00
1713,-0.0583200,700.00
1714,-0.0583600,720.00
1715,-0.0584000,680.00
1716,-0.0584400,700.00
1717,-0.0584800,680.00
1718,-0.0585200,700.00
1719,-0.0585600,680.00
1720,-0.0586000,700.00
1721,-0.0586400,660.00
1722,-0.0586800,700.00
1723,-0.0587200,660.00
1724,-0.0587600,680.00
1725,-0.0588000,660.00
1726,-0.0588400,680.00
1727,-0.0588800,640.00
1728,-0.0589200,660.00
1729,-0.0589600,640.00
1730,-0.0590000,660.00
1731,-0.0590400,640.00
1732,-0.0590800,660.00
1733,-0.0591200,640.00
1734,-0.0591600,640.00
1735,-0.0592000,640.00
1736,-0.0592400,640.00
1737,-0.0592800,640.00
1738,-0.0593200,640.00
1739,-0.0593600,620.00
1740,-0.0594000,640.00
1741,-0.0594400,620.00
1742,-0.0594800,640.00
1743,-0.0595200,600.00
1744,-0.0595600,640.00
1745,-0.0596000,600.00
1746,-0.0596400,620.00
1747,-0.0596800,600.00
1748,-0.0597200,620.00
1749,-0.0597600,600.00
1750,-0.0598000,620.00
1751,-0.0598400,600.00
1752,-0.0598800,600.00
1753,-0.0599200,600.00
1754,-0.0599600,620.00
1755,-0.0600000,580.00
1756,-0.0600400,600.00
1757,-0.0600800,560.00
1758,-0.0601200,600.00
1759,-0.0601600,580.00
1760,-0.0602000,620.00
1761,-0.0602400,560.00
1762,-0.0602800,580.00
1763,-0.0603200,560.00
1764,-0.0603600,600.00
1765,-0.0604000,560.00
1766,-0.0604400,580.00
1767,-0.0604800,540.00
1768,-0.0605200,580.00
1769,-0.0605600,540.00
1770,-0.0606000,580.00
1771,-0.0606400,540.00
1772,-0.0606800,580.00
1773,-0.0607200,540.00
1774,-0.0607600,560.00
1775,-0.0608000,560.00
1776,-0.0608400,560.00
1777,-0.0608800,540.00
1778,-0.0609200,560.00
1779,-0.0609600,520.00
1780,-0.0610000,540.00
1781,-0.0610400,520.00
1782,-0.0610800,540.00
1783,-0.0611200,520.00
1784,-0.0611600,540.00
1785,-0.0612000,520.00
1786,-0.0612400,540.00
1787,-0.0612800,520.00
1788,-0.0613200,540.00
1789,-0.0613600,520.00
1790,-0.0614000,540.00
1791,-0.0614400,520.00
1792,-0.0614800,540.00
1793,-0.0615200,520.00
1794,-0.0615600,540.00
1795,-0.0616000,480.00
1796,-0.0616400,520.00
1797,-0.0616800,500.00
1798,-0.0617200,520.00
1799,-0.0617600,500.00
1800,-0.0618000,520.00
1801,-0.0618400,480.00
1802,-0.0618800,520.00
1803,-0.0619200,480.00
1804,-0.0619600,520.00
1805,-0.0620000,500.00
1806,-0.0620400,520.00
1807,-0.0620800,480.00
1808,-0.0621200,520.00
1809,-0.0621600,480.00
1810,-0.0622000,520.00
1811,-0.0622400,480.00
1812,-0.0622800,500.00
1813,-0.0623200,480.00
1814,-0.0623600,500.00
1815,-0.0624000,480.00
1816,-0.0624400,480.00
1817,-0.0624800,480.00
1818,-0.0625200,480.00
1819,-0.0625600,480.00
1820,-0.0626000,480.00
1821,-0.0626400,480.00
1822,-0.0626800,480.00
1823,-0.0627200,480.00
1824,-0.0627600,480.00
1825,-0.0628000,460.00
1826,-0.0628400,480.00
1827,-0.0628800,480.00
1828,-0.0629200,480.00
1829,-0.0629600,440.00
1830,-0.0630000,480.00
1831,-0.0630400,440.00
1832,-0.0630800,480.00
1833,-0.0631200,440.00
1834,-0.0631600,460.00
1835,-0.0632000,440.00
1836,-0.0632400,480.00
1837,-0.0632800,440.00
1838,-0.0633200,480.00
1839,-0.0633600,440.00
1840,-0.0634000,480.00
1841,-0.0634400,460.00
1842,-0.0634800,480.00
1843,-0.0635200,440.00
1844,-0.0635600,460.00
1845,-0.0636000,440.00
1846,-0.0636400,460.00
1847,-0.0636800,420.00
1848,-0.0637200,440.00
1849,-0.0637600,420.00
1850,-0.0638000,440.00
1851,-0.0638400,420.00
1852,-0.0638800,440.00
1853,-0.0639200,400.00
1854,-0.0639600,440.00
1855,-0.0640000,400.00
1856,-0.0640400,440.00
1857,-0.0640800,400.00
1858,-0.0641200,440.00
1859,-0.0641600,400.00
1860,-0.0642000,440.00
1861,-0.0642400,400.00
1862,-0.0642800,440.00
1863,-0.0643200,400.00
1864,-0.0643600,440.00
1865,-0.0644000,380.00
1866,-0.0644400,420.00
1867,-0.0644800,380.00
1868,-0.0645200,400.00
1869,-0.0645600,380.00
1870,-0.0646000,400.00
1871,-0.0646400,380.00
1872,-0.0646800,400.00
1873,-0.0647200,380.00
1874,-0.0647600,400.00
1875,-0.0648000,380.00
1876,-0.0648400,420.00
1877,-0.0648800,380.00
1878,-0.0649200,400.00
1879,-0.0649600,380.00
1880,-0.0650000,400.00
1881,-0.0650400,380.00
1882,-0.0650800,400.00
1883,-0.0651200,380.00
1884,-0.0651600,400.00
1885,-0.0652000,360.00
1886,-0.0652400,400.00
1887,-0.0652800,380.00
1888,-0.0653200,380.00
1889,-0.0653600,360.00
1890,-0.0654000,380.00
1891,-0.0654400,360.00
1892,-0.0654800,380.00
1893,-0.0655200,380.00
1894,-0.0655600,400.00
1895,-0.0656000,360.00
1896,-0.0656400,380.00
1897,-0.0656800,360.00
1898,-0.0657200,380.00
1899,-0.0657600,340.00
1900,-0.0658000,380.00
1901,-0.0658400,360.00
1902,-0.0658800,380.00
1903,-0.0659200,340.00
1904,-0.0659600,360.00
1905,-0.0660000,340.00
1906,-0.0660400,380.00
1907,-0.0660800,340.00
1908,-0.0661200,380.00
1909,-0.0661600,340.00
1910,-0.0662000,380.00
1911,-0.0662400,340.00
1912,-0.0662800,360.00
1913,-0.0663200,340.00
1914,-0.0663600,360.00
1915,-0.0664000,340.00
1916,-0.0664400,360.00
1917,-0.0664800,320.00
1918,-0.0665200,340.00
1919,-0.0665600,320.00
1920,-0.0666000,340.00
1921,-0.0666400,320.00
1922,-0.0666800,340.00
1923,-0.0667200,320.00
1924,-0.0667600,340.00
1925,-0.0668000,320.00
1926,-0.0668400,360.00
1927,-0.0668800,320.00
1928,-0.0669200,340.00
1929,-0.0669600,320.00
1930,-0.0670000,360.00
1931,-0.0670400,320.00
1932,-0.0670800,360.00
1933,-0.0671200,320.00
1934,-0.0671600,320.00
1935,-0.0672000,320.00
1936,-0.0672400,320.00
1937,-0.0672800,320.00
1938,-0.0673200,320.00
1939,-0.0673600,300.00
1940,-0.0674000,320.00
1941,-0.0674400,320.00
1942,-0.0674800,340.00
1943,-0.0675200,320.00
1944,-0.0675600,320.00
1945,-0.0676000,300.00
1946,-0.0676400,320.00
1947,-0.0676800,320.00
1948,-0.0677200,320.00
1949,-0.0677600,300.00
1950,-0.0678000,320.00
1951,-0.0678400,300.00
1952,-0.0678800,320.00
1953,-0.0679200,280.00
1954,-0.0679600,320.00
1955,-0.0680000,300.00
1956,-0.0680400,300.00
1957,-0.0680800,280.00
1958,-0.0681200,320.00
1959,-0.0681600,300.00
1960,-0.0682000,320.00
1961,-0.0682400,280.00
1962,-0.0682800,320.00
1963,-0.0683200,300.00
1964,-0.0683600,320.00
1965,-0.0684000,300.00
1966,-0.0684400,320.00
1967,-0.0684800,280.00
1968,-0.0685200,320.00
1969,-0.0685600,280.00
1970,-0.0686000,300.00
1971,-0.0686400,280.00
1972,-0.0686800,300.00
1973,-0.0687200,280.00
1974,-0.0687600,280.00
1975,-0.0688000,280.00
1976,-0.0688400,300.00
1977,-0.0688800,260.00
1978,-0.0689200,300.00
1979,-0.0689600,280.00
1980,-0.0690000,300.00
1981,-0.0690400,280.00
1982,-0.0690800,300.00
1983,-0.0691200,280.00
1984,-0.0691600,300.00
1985,-0.0692000,260.00
1986,-0.0692400,280.00
1987,-0.0692800,260.00
1988,-0.0693200,280.00
1989,-0.0693600,260.00
1990,-0.0694000,280.00
1991,-0.0694400,260.00
1992,-0.0694800,280.00
1993,-0.0695200,260.00
1994,-0.0695600,300.00
1995,-0.0696000,260.00
1996,-0.0696400,280.00
1997,-0.0696800,260.00
1998,-0.0697200,300.00
1999,-0.0697600,260.00
2000,-0.0698000,300.00
2001,-0.0698400,260.00
2002,-0.0698800,280.00
2003,-0.0699200,260.00
2004,-0.0699600,280.00
2005,-0.0700000,240.00
2006,-0.0700400,280.00
2007,-0.0700800,240.00
2008,-0.0701200,280.00
2009,-0.0701600,240.00
2010,-0.0702000,280.00
2011,-0.0702400,240.00
2012,-0.0702800,280.00
2013,-0.0703200,240.00
2014,-0.0703600,280.00
2015,-0.0704000,260.00
2016,-0.0704400,280.00
2017,-0.0704800,260.00
2018,-0.0705200,280.00
2019,-0.0705600,240.00
2020,-0.0706000,280.00
2021,-0.0706400,240.00
2022,-0.0706800,260.00
2023,-0.0707200,240.00
2024,-0.0707600,260.00
2025,-0.0708000,240.00
2026,-0.0708400,280.00
2027,-0.0708800,240.00
2028,-0.0709200,260.00
2029,-0.0709600,240.00
2030,-0.0710000,280.00
2031,-0.0710400,240.00
2032,-0.0710800,260.00
2033,-0.0711200,240.00
2034,-0.0711600,260.00
2035,-0.0712000,240.00
2036,-0.0712400,280.00
2037,-0.0712800,220.00
2038,-0.0713200,240.00
2039,-0.0713600,240.00
2040,-0.0714000,260.00
2041,-0.0714400,240.00
2042,-0.0714800,240.00
2043,-0.0715200,220.00
2044,-0.0715600,240.00
2045,-0.0716000,240.00
2046,-0.0716400,260.00
2047,-0.0716800,240.00
2048,-0.0717200,240.00
2049,-0.0717600,240.00
2050,-0.0718000,260.00
2051,-0.0718400,240.00
2052,-0.0718800,240.00
2053,-0.0719200,240.00
2054,-0.0719600,240.00
2055,-0.0720000,220.00
2056,-0.0720400,240.00
2057,-0.0720800,220.00
2058,-0.0721200,240.00
2059,-0.0721600,220.00
2060,-0.0722000,240.00
2061,-0.0722400,220.00
2062,-0.0722800,240.00
2063,-0.0723200,220.00
2064,-0.0723600,240.00
2065,-0.0724000,220.00
2066,-0.0724400,240.00
2067,-0.0724800,220.00
2068,-0.0725200,240.00
2069,-0.0725600,220.00
2070,-0.0726000,240.00
2071,-0.0726400,220.00
2072,-0.0726800,240.00
2073,-0.0727200,200.00
2074,-0.0727600,220.00
2075,-0.0728000,220.00
2076,-0.0728400,240.00
2077,-0.0728800,200.00
2078,-0.0729200,220.00
2079,-0.0729600,220.00
2080,-0.0730000,240.00
2081,-0.0730400,220.00
2082,-0.0730800,240.00
2083,-0.0731200,220.00
2084,-0.0731600,240.00
2085,-0.0732000,220.00
2086,-0.0732400,240.00
2087,-0.0732800,220.00
2088,-0.0733200,240.00
2089,-0.0733600,200.00
2090,-0.0734000,240.00
2091,-0.0734400,200.00
2092,-0.0734800,220.00
2093,-0.0735200,200.00
2094,-0.0735600,220.00
2095,-0.0736000,200.00
2096,-0.0736400,220.00
2097,-0.0736800,200.00
2098,-0.0737200,220.00
2099,-0.0737600,200.00
2100,-0.0738000,220.00
2101,-0.0738400,200.00
2102,-0.0738800,240.00
2103,-0.0739200,200.00
2104,-0.0739600,240.00
2105,-0.0740000,200.00
2106,-0.0740400,220.00
2107,-0.0740800,200.00
2108,-0.0741200,220.00
2109,-0.0741600,200.00
2110,-0.0742000,220.00
2111,-0.0742400,200.00
2112,-0.0742800,200.00
2113,-0.0743200,200.00
2114,-0.0743600,220.00
2115,-0.0744000,200.00
2116,-0.0744400,220.00
2117,-0.0744800,200.00
2118,-0.0745200,220.00
2119,-0.0745600,200.00
2120,-0.0746000,220.00
2121,-0.0746400,200.00
2122,-0.0746800,220.00
2123,-0.0747200,200.00
2124,-0.0747600,220.00
2125,-0.0748000,180.00
2126,-0.0748400,200.00
2127,-0.0748800,180.00
2128,-0.0749200,200.00
2129,-0.0749600,160.00
2130,-0.0750000,200.00
2131,-0.0750400,180.00
2132,-0.0750800,200.00
2133,-0.0751200,180.00
2134,-0.0751600,200.00
2135,-0.0752000,180.00
2136,-0.0752400,220.00
2137,-0.0752800,160.00
2138,-0.0753200,200.00
2139,-0.0753600,180.00
2140,-0.0754000,200.00
2141,-0.0754400,160.00
2142,-0.0754800,200.00
2143,-0.0755200,160.00
2144,-0.0755600,200.00
2145,-0.0756000,160.00
2146,-0.0756400,200.00
2147,-0.0756800,160.00
2148,-0.0757200,180.00
2149,-0.0757600,160.00
2150,-0.0758000,200.00
2151,-0.0758400,160.00
2152,-0.0758800,200.00
2153,-0.0759200,180.00
2154,-0.0759600,200.00
2155,-0.0760000,160.00
2156,-0.0760400,200.00
2157,-0.0760800,160.00
2158,-0.0761200,200.00
2159,-0.0761600,160.00
2160,-0.0762000,180.00
2161,-0.0762400,160.00
2162,-0.0762800,180.00
2163,-0.0763200,160.00
2164,-0.0763600,180.00
2165,-0.0764000,160.00
2166,-0.0764400,180.00
2167,-0.0764800,160.00
2168,-0.0765200,180.00
2169,-0.0765600,160.00
2170,-0.0766000,180.00
2171,-0.0766400,160.00
2172,-0.0766800,180.00
2173,-0.0767200,160.00
2174,-0.0767600,200.00
2175,-0.0768000,160.00
2176,-0.0768400,180.00
2177,-0.0768800,160.00
2178,-0.0769200,160.00
2179,-0.0769600,160.00
2180,-0.0770000,180.00
2181,-0.0770400,160.00
2182,-0.0770800,160.00
2183,-0.0771200,160.00
2184,-0.0771600,180.00
2185,-0.0772000,160.00
2186,-0.0772400,180.00
2187,-0.0772800,160.00
2188,-0.0773200,180.00
2189,-0.0773600,160.00
2190,-0.0774000,180.00
2191,-0.0774400,160.00
2192,-0.0774800,180.00
2193,-0.0775200,160.00
2194,-0.0775600,160.00
2195,-0.0776000,160.00
2196,-0.0776400,160.00
2197,-0.0776800,160.00
2198,-0.0777200,160.00
2199,-0.0777600,140.00
2200,-0.0778000,160.00
2201,-0.0778400,160.00
2202,-0.0778800,180.00
2203,-0.0779200,160.00
2204,-0.0779600,160.00
2205,-0.0780000,160.00
2206,-0.0780400,180.00
2207,-0.0780800,160.00
2208,-0.0781200,160.00
2209,-0.0781600,160.00
2210,-0.0782000,160.00
2211,-0.0782400,160.00
2212,-0.0782800,160.00
2213,-0.0783200,140.00
2214,-0.0783600,160.00
2215,-0.0784000,140.00
2216,-0.0784400,160.00
2217,-0.0784800,160.00
2218,-0.0785200,160.00
2219,-0.0785600,140.00
2220,-0.0786000,160.00
2221,-0.0786400,160.00
2222,-0.0786800,160.00
2223,-0.0787200,160.00
2224,-0.0787600,160.00
2225,-0.0788000,160.00
2226,-0.0788400,160.00
2227,-0.0788800,140.00
2228,-0.0789200,160.00
2229,-0.0789600,140.00
2230,-0.0790000,160.00
2231,-0.0790400,140.00
2232,-0.0790800,160.00
2233,-0.0791200,140.00
2234,-0.0791600,160.00
2235,-0.0792000,140.00
2236,-0.0792400,160.00
2237,-0.0792800,140.00
2238,-0.0793200,160.00
2239,-0.0793600,160.00
2240,-0.0794000,160.00
2241,-0.0794400,160.00
2242,-0.0794800,160.00
2243,-0.0795200,140.00
2244,-0.0795600,160.00
2245,-0.0796000,140.00
2246,-0.0796400,160.00
2247,-0.0796800,140.00
2248,-0.0797200,160.00
2249,-0.0797600,120.00
2250,-0.0798000,160.00
2251,-0.0798400,120.00
2252,-0.0798800,160.00
2253,-0.0799200,140.00
2254,-0.0799600,160.00
2255,-0.0800000,140.00
2256,-0.0800400,160.00
2257,-0.0800800,140.00
2258,-0.0801200,160.00
2259,-0.0801600,140.00
2260,-0.0802000,160.00
2261,-0.0802400,140.00
2262,-0.0802800,160.00
2263,-0.0803200,140.00
2264,-0.0803600,160.00
2265,-0.0804000,140.00
2266,-0.0804400,160.00
2267,-0.0804800,120.00
2268,-0.0805200,160.00
2269,-0.0805600,140.00
2270,-0.0806000,160.00
2271,-0.0806400,140.00
2272,-0.0806800,160.00
2273,-0.0807200,140.00
2274,-0.0807600,160.00
2275,-0.0808000,140.00
2276,-0.0808400,160.00
2277,-0.0808800,140.00
2278,-0.0809200,160.00
2279,-0.0809600,120.00
2280,-0.0810000,160.00
2281,-0.0810400,120.00
2282,-0.0810800,140.00
2283,-0.0811200,120.00
2284,-0.0811600,140.00
2285,-0.0812000,120.00
2286,-0.0812400,160.00
2287,-0.0812800,120.00
2288,-0.0813200,160.00
2289,-0.0813600,120.00
2290,-0.0814000,140.00
2291,-0.0814400,140.00
2292,-0.0814800,160.00
2293,-0.0815200,140.00
2294,-0.0815600,160.00
2295,-0.0816000,120.00
2296,-0.0816400,140.00
2297,-0.0816800,120.00
2298,-0.0817200,140.00
2299,-0.0817600,120.00
2300,-0.0818000,140.00
2301,-0.0818400,120.00
2302,-0.0818800,140.00
2303,-0.0819200,120.00
2304,-0.0819600,140.00
2305,-0.0820000,120.00
2306,-0.0820400,160.00
2307,-0.0820800,120.00
2308,-0.0821200,140.00
2309,-0.0821600,120.00
2310,-0.0822000,140.00
2311,-0.0822400,140.00
2312,-0.0822800,160.00
2313,-0.0823200,120.00
2314,-0.0823600,140.00
2315,-0.0824000,120.00
2316,-0.0824400,140.00
2317,-0.0824800,120.00
2318,-0.0825200,140.00
2319,-0.0825600,120.00
2320,-0.0826000,140.00
2321,-0.0826400,100.00
2322,-0.0826800,140.00
2323,-0.0827200,120.00
2324,-0.0827600,140.00
2325,-0.0828000,120.00
2326,-0.0828400,140.00
2327,-0.0828800,120.00
2328,-0.0829200,140.00
2329,-0.0829600,120.00
2330,-0.0830000,140.00
2331,-0.0830400,120.00
2332,-0.0830800,140.00
2333,-0.0831200,120.00
2334,-0.0831600,140.00
2335,-0.0832000,120.00
2336,-0.0832400,120.00
2337,-0.0832800,120.00
2338,-0.0833200,120.00
2339,-0.0833600,120.00
2340,-0.0834000,140.00
2341,-0.0834400,120.00
2342,-0.0834800,140.00
2343,-0.0835200,120.00
2344,-0.0835600,140.00
2345,-0.0836000,120.00
2346,-0.0836400,140.00
2347,-0.0836800,120.00
2348,-0.0837200,140.00
2349,-0.0837600,120.00
2350,-0.0838000,120.00
2351,-0.0838400,100.00
2352,-0.0838800,120.00
2353,-0.0839200,120.00
2354,-0.0839600,120.00
2355,-0.0840000,120.00
2356,-0.0840400,120.00
2357,-0.0840800,120.00
2358,-0.0841200,120.00
2359,-0.0841600,120.00
2360,-0.0842000,120.00
2361,-0.0842400,120.00
2362,-0.0842800,140.00
2363,-0.0843200,120.00
2364,-0.0843600,140.00
2365,-0.0844000,100.00
2366,-0.0844400,140.00
2367,-0.0844800,100.00
2368,-0.0845200,140.00
2369,-0.0845600,100.00
2370,-0.0846000,120.00
2371,-0.0846400,100.00
2372,-0.0846800,120.00
2373,-0.0847200,120.00
2374,-0.0847600,120.00
2375,-0.0848000,100.00
2376,-0.0848400,120.00
2377,-0.0848800,120.00
2378,-0.0849200,140.00
2379,-0.0849600,100.00
2380,-0.0850000,140.00
2381,-0.0850400,100.00
2382,-0.0850800,140.00
2383,-0.0851200,100.00
2384,-0.0851600,120.00
2385,-0.0852000,100.00
2386,-0.0852400,120.00
2387,-0.0852800,80.00
2388,-0.0853200,120.00
2389,-0.0853600,80.00
2390,-0.0854000,120.00
2391,-0.0854400,100.00
2392,-0.0854800,120.00
2393,-0.0855200,100.00
2394,-0.0855600,120.00
2395,-0.0856000,100.00
2396,-0.0856400,140.00
2397,-0.0856800,100.00
2398,-0.0857200,140.00
2399,-0.0857600,120.00
2400,-0.0858000,120.00
2401,-0.0858400,80.00
2402,-0.0858800,120.00
2403,-0.0859200,80.00
2404,-0.0859600,120.00
2405,-0.0860000,80.00
2406,-0.0860400,120.00
2407,-0.0860800,80.00
2408,-0.0861200,120.00
2409,-0.0861600,100.00
2410,-0.0862000,120.00
2411,-0.0862400,100.00
2412,-0.0862800,120.00
2413,-0.0863200,120.00
2414,-0.0863600,120.00
2415,-0.0864000,100.00
2416,-0.0864400,120.00
2417,-0.0864800,100.00
2418,-0.0865200,120.00
2419,-0.0865600,80.00
2420,-0.0866000,120.00
2421,-0.0866400,80.00
2422,-0.0866800,120.00
2423,-0.0867200,80.00
2424,-0.0867600,120.00
2425,-0.0868000,80.00
2426,-0.0868400,120.00
2427,-0.0868800,80.00
2428,-0.0869200,120.00
2429,-0.0869600,100.00
2430,-0.0870000,120.00
2431,-0.0870400,80.00
2432,-0.0870800,120.00
2433,-0.0871200,80.00
2434,-0.0871600,120.00
2435,-0.0872000,80.00
2436,-0.0872400,120.00
2437,-0.0872800,80.00
2438,-0.0873200,120.00
2439,-0.0873600,80.00
2440,-0.0874000,100.00
2441,-0.0874400,80.00
2442,-0.0874800,100.00
2443,-0.0875200,80.00
2444,-0.0875600,120.00
2445,-0.0876000,80.00
2446,-0.0876400,120.00
2447,-0.0876800,80.00
2448,-0.0877200,100.00
2449,-0.0877600,100.00
2450,-0.0878000,120.00
2451,-0.0878400,80.00
2452,-0.0878800,120.00
2453,-0.0879200,80.00
2454,-0.0879600,100.00
2455,-0.0880000,80.00
2456,-0.0880400,100.00
2457,-0.0880800,80.00
2458,-0.0881200,100.00
2459,-0.0881600,80.00
2460,-0.0882000,120.00
2461,-0.0882400,80.00
2462,-0.0882800,120.00
2463,-0.0883200,80.00
2464,-0.0883600,120.00
2465,-0.0884000,80.00
2466,-0.0884400,120.00
2467,-0.0884800,80.00
2468,-0.0885200,120.00
2469,-0.0885600,80.00
2470,-0.0886000,120.00
2471,-0.0886400,80.00
2472,-0.0886800,100.00
2473,-0.0887200,80.00
2474,-0.0887600,100.00
2475,-0.0888000,80.00
2476,-0.0888400,100.00
2477,-0.0888800,80.00
2478,-0.0889200,120.00
2479,-0.0889600,80.00
2480,-0.0890000,100.00
2481,-0.0890400,80.00
2482,-0.0890800,100.00
2483,-0.0891200,80.00
2484,-0.0891600,100.00
2485,-0.0892000,80.00
2486,-0.0892400,100.00
2487,-0.0892800,80.00
2488,-0.0893200,100.00
2489,-0.0893600,80.00
2490,-0.0894000,100.00
2491,-0.0894400,80.00
2492,-0.0894800,100.00
2493,-0.0895200,80.00
2494,-0.0895600,100.00
2495,-0.0896000,80.00
2496,-0.0896400,100.00
2497,-0.0896800,80.00
2498,-0.0897200,100.00
2499,-0.0897600,80.00
2500,-0.0898000,120.00
2501,-0.0898400,80.00
2502,-0.0898800,120.00
2503,-0.0899200,80.00
2504,-0.0899600,120.00
2505,-0.0900000,80.00
2506,-0.0900400,80.00
2507,-0.0900800,80.00
2508,-0.0901200,80.00
2509,-0.0901600,80.00
2510,-0.0902000,100.00
2511,-0.0902400,60.00
2512,-0.0902800,100.00
2513,-0.0903200,80.00
2514,-0.0903600,100.00
2515,-0.0904000,80.00
2516,-0.0904400,120.00
2517,-0.0904800,80.00
2518,-0.0905200,100.00
2519,-0.0905600,80.00
2520,-0.0906000,100.00
2521,-0.0906400,80.00
2522,-0.0906800,100.00
2523,-0.0907200,80.00
2524,-0.0907600,120.00
2525,-0.0908000,80.00
2526,-0.0908400,80.00
2527,-0.0908800,60.00
2528,-0.0909200,80.00
2529,-0.0909600,80.00
2530,-0.0910000,100.00
2531,-0.0910400,80.00
2532,-0.0910800,80.00
2533,-0.0911200,80.00
2534,-0.0911600,100.00
2535,-0.0912000,80.00
2536,-0.0912400,100.00
2537,-0.0912800,80.00
2538,-0.0913200,100.00
2539,-0.0913600,80.00
2540,-0.0914000,80.00
2541,-0.0914400,80.00
2542,-0.0914800,80.00
2543,-0.0915200,60.00
2544,-0.0915600,80.00
2545,-0.0916000,60.00
2546,-0.0916400,80.00
2547,-0.0916800,80.00
2548,-0.0917200,100.00
2549,-0.0917600,80.00
2550,-0.0918000,100.00
2551,-0.0918400,80.00
2552,-0.0918800,100.00
2553,-0.0919200,80.00
2554,-0.0919600,100.00
2555,-0.0920000,80.00
2556,-0.0920400,100.00
2557,-0.0920800,80.00
2558,-0.0921200,80.00
2559,-0.0921600,60.00
2560,-0.0922000,80.00
2561,-0.0922400,60.00
2562,-0.0922800,80.00
2563,-0.0923200,80.00
2564,-0.0923600,80.00
2565,-0.0924000,80.00
2566,-0.0924400,80.00
2567,-0.0924800,80.00
2568,-0.0925200,100.00
2569,-0.0925600,80.00
2570,-0.0926000,100.00
2571,-0.0926400,80.00
2572,-0.0926800,120.00
2573,-0.0927200,60.00
2574,-0.0927600,100.00
2575,-0.0928000,60.00
2576,-0.0928400,80.00
2577,-0.0928800,60.00
2578,-0.0929200,100.00
2579,-0.0929600,60.00
2580,-0.0930000,80.00
2581,-0.0930400,80.00
2582,-0.0930800,100.00
2583,-0.0931200,60.00
2584,-0.0931600,80.00
2585,-0.0932000,60.00
2586,-0.0932400,100.00
2587,-0.0932800,80.00
2588,-0.0933200,80.00
2589,-0.0933600,80.00
2590,-0.0934000,80.00
2591,-0.0934400,60.00
2592,-0.0934800,100.00
2593,-0.0935200,60.00
2594,-0.0935600,80.00
2595,-0.0936000,60.00
2596,-0.0936400,80.00
2597,-0.0936800,60.00
2598,-0.0937200,80.00
2599,-0.0937600,60.00
2600,-0.0938000,80.00
2601,-0.0938400,60.00
2602,-0.0938800,80.00
2603,-0.0939200,60.00
2604,-0.0939600,100.00
2605,-0.0940000,60.00
2606,-0.0940400,80.00
2607,-0.0940800,60.00
2608,-0.0941200,100.00
2609,-0.0941600,60.00
2610,-0.0942000,80.00
2611,-0.0942400,60.00
2612,-0.0942800,80.00
2613,-0.0943200,60.00
2614,-0.0943600,80.00
2615,-0.0944000,60.00
2616,-0.0944400,80.00
2617,-0.0944800,60.00
2618,-0.0945200,80.00
2619,-0.0945600,60.00
2620,-0.0946000,80.00
2621,-0.0946400,60.00
2622,-0.0946800,80.00
2623,-0.0947200,60.00
2624,-0.0947600,80.00
2625,-0.0948000,60.00
2626,-0.0948400,80.00
2627,-0.0948800,60.00
2628,-0.0949200,80.00
2629,-0.0949600,60.00
2630,-0.0950000,80.00
2631,-0.0950400,60.00
2632,-0.0950800,80.00
2633,-0.0951200,60.00
2634,-0.0951600,80.00
2635,-0.0952000,80.00
2636,-0.0952400,80.00
2637,-0.0952800,60.00
2638,-0.0953200,80.00
2639,-0.0953600,60.00
2640,-0.0954000,80.00
2641,-0.0954400,60.00
2642,-0.0954800,80.00
2643,-0.0955200,60.00
2644,-0.0955600,80.00
2645,-0.0956000,60.00
2646,-0.0956400,80.00
2647,-0.0956800,60.00
2648,-0.0957200,80.00
2649,-0.0957600,60.00
2650,-0.0958000,60.00
2651,-0.0958400,60.00
2652,-0.0958800,80.00
2653,-0.0959200,60.00
2654,-0.0959600,80.00
2655,-0.0960000,80.00
2656,-0.0960400,80.00
2657,-0.0960800,60.00
2658,-0.0961200,80.00
2659,-0.0961600,60.00
2660,-0.0962000,80.00
2661,-0.0962400,60.00
2662,-0.0962800,80.00
2663,-0.0963200,60.00
2664,-0.0963600,80.00
2665,-0.0964000,60.00
2666,-0.0964400,80.00
2667,-0.0964800,60.00
2668,-0.0965200,80.00
2669,-0.0965600,60.00
2670,-0.0966000,80.00
2671,-0.0966400,60.00
2672,-0.0966800,80.00
2673,-0.0967200,60.00
2674,-0.0967600,80.00
2675,-0.0968000,60.00
2676,-0.0968400,80.00
2677,-0.0968800,60.00
2678,-0.0969200,80.00
2679,-0.0969600,60.00
2680,-0.0970000,80.00
2681,-0.0970400,60.00
2682,-0.0970800,80.00
2683,-0.0971200,60.00
2684,-0.0971600,60.00
2685,-0.0972000,60.00
2686,-0.0972400,80.00
2687,-0.0972800,60.00
2688,-0.0973200,80.00
2689,-0.0973600,60.00
2690,-0.0974000,80.00
2691,-0.0974400,60.00
2692,-0.0974800,80.00
2693,-0.0975200,80.00
2694,-0.0975600,80.00
2695,-0.0976000,60.00
2696,-0.0976400,80.00
2697,-0.0976800,60.00
2698,-0.0977200,60.00
2699,-0.0977600,60.00
2700,-0.0978000,80.00
2701,-0.0978400,60.00
2702,-0.0978800,80.00
2703,-0.0979200,60.00
2704,-0.0979600,80.00
2705,-0.0980000,60.00
2706,-0.0980400,80.00
2707,-0.0980800,60.00
2708,-0.0981200,80.00
2709,-0.0981600,60.00
2710,-0.0982000,80.00
2711,-0.0982400,60.00
2712,-0.0982800,80.00
2713,-0.0983200,60.00
2714,-0.0983600,80.00
2715,-0.0984000,60.00
2716,-0.0984400,80.00
2717,-0.0984800,60.00
2718,-0.0985200,60.00
2719,-0.0985600,60.00
2720,-0.0986000,80.00
2721,-0.0986400,60.00
2722,-0.0986800,80.00
2723,-0.0987200,60.00
2724,-0.0987600,80.00
2725,-0.0988000,60.00
2726,-0.0988400,80.00
2727,-0.0988800,60.00
2728,-0.0989200,80.00
2729,-0.0989600,60.00
2730,-0.0990000,80.00
2731,-0.0990400,40.00
2732,-0.0990800,60.00
2733,-0.0991200,60.00
2734,-0.0991600,80.00
2735,-0.0992000,60.00
2736,-0.0992400,60.00
2737,-0.0992800,60.00
2738,-0.0993200,60.00
2739,-0.0993600,60.00
2740,-0.0994000,80.00
2741,-0.0994400,60.00
2742,-0.0994800,60.00
2743,-0.0995200,60.00
2744,-0.0995600,80.00
2745,-0.0996000,60.00
2746,-0.0996400,80.00
2747,-0.0996800,40.00
2748,-0.0997200,80.00
2749,-0.0997600,40.00
2750,-0.0998000,60.00
2751,-0.0998400,60.00
2752,-0.0998800,80.00
2753,-0.0999200,60.00
2754,-0.0999600,60.00
2755,-0.1000000,60.00
2756,-0.1000400,80.00
2757,-0.1000800,40.00
2758,-0.1001200,80.00
2759,-0.1001600,60.00
2760,-0.1002000,80.00
2761,-0.1002400,60.00
2762,-0.1002800,80.00
2763,-0.1003200,60.00
2764,-0.1003600,80.00
2765,-0.1004000,40.00
2766,-0.1004400,60.00
2767,-0.1004800,40.00
2768,-0.1005200,60.00
2769,-0.1005600,40.00
2770,-0.1006000,80.00
2771,-0.1006400,60.00
2772,-0.1006800,60.00
2773,-0.1007200,60.00
2774,-0.1007600,80.00
2775,-0.1008000,60.00
2776,-0.1008400,80.00
2777,-0.1008800,60.00
2778,-0.1009200,60.00
2779,-0.1009600,60.00
2780,-0.1010000,60.00
2781,-0.1010400,60.00
2782,-0.1010800,60.00
2783,-0.1011200,40.00
2784,-0.1011600,60.00
2785,-0.1012000,40.00
2786,-0.1012400,60.00
2787,-0.1012800,40.00
2788,-0.1013200,60.00
2789,-0.1013600,60.00
2790,-0.1014000,60.00
2791,-0.1014400,60.00
2792,-0.1014800,60.00
2793,-0.1015200,60.00
2794,-0.1015600,80.00
2795,-0.1016000,60.00
2796,-0.1016400,80.00
2797,-0.1016800,60.00
2798,-0.1017200,80.00
2799,-0.1017600,60.00
2800,-0.1018000,60.00
2801,-0.1018400,40.00
2802,-0.1018800,60.00
2803,-0.1019200,40.00
2804,-0.1019600,60.00
2805,-0.1020000,40.00
2806,-0.1020400,60.00
2807,-0.1020800,40.00
2808,-0.1021200,60.00
2809,-0.1021600,60.00
2810,-0.1022000,60.00
2811,-0.1022400,60.00
2812,-0.1022800,60.00
2813,-0.1023200,60.00
2814,-0.1023600,60.00
2815,-0.1024000,60.00
2816,-0.1024400,80.00
2817,-0.1024800,40.00
2818,-0.1025200,60.00
2819,-0.1025600,40.00
2820,-0.1026000,60.00
2821,-0.1026400,40.00
2822,-0.1026800,60.00
2823,-0.1027200,40.00
2824,-0.1027600,60.00
2825,-0.1028000,60.00
2826,-0.1028400,60.00
2827,-0.1028800,40.00
2828,-0.1029200,80.00
2829,-0.1029600,60.00
2830,-0.1030000,80.00
2831,-0.1030400,60.00
2832,-0.1030800,60.00
2833,-0.1031200,60.00
2834,-0.1031600,60.00
2835,-0.1032000,40.00
2836,-0.1032400,60.00
2837,-0.1032800,40.00
2838,-0.1033200,60.00
2839,-0.1033600,40.00
2840,-0.1034000,60.00
2841,-0.1034400,40.00
2842,-0.1034800,80.00
2843,-0.1035200,40.00
2844,-0.1035600,60.00
2845,-0.1036000,60.00
2846,-0.1036400,60.00
2847,-0.1036800,60.00
2848,-0.1037200,80.00
2849,-0.1037600,60.00
2850,-0.1038000,60.00
2851,-0.1038400,60.00
2852,-0.1038800,60.00
2853,-0.1039200,40.00
2854,-0.1039600,60.00
2855,-0.1040000,40.00
2856,-0.1040400,60.00
2857,-0.1040800,40.00
2858,-0.1041200,60.00
2859,-0.1041600,40.00
2860,-0.1042000,60.00
2861,-0.1042400,40.00
2862,-0.1042800,60.00
2863,-0.1043200,60.00
2864,-0.1043600,60.00
2865,-0.1044000,60.00
2866,-0.1044400,80.00
2867,-0.1044800,60.00
2868,-0.1045200,80.00
2869,-0.1045600,40.00
2870,-0.1046000,60.00
2871,-0.1046400,40.00
2872,-0.1046800,60.00
2873,-0.1047200,40.00
2874,-0.1047600,60.00
2875,-0.1048000,40.00
2876,-0.1048400,60.00
2877,-0.1048800,40.00
2878,-0.1049200,60.00
2879,-0.1049600,60.00
2880,-0.1050000,80.00
2881,-0.1050400,60.00
2882,-0.1050800,60.00
2883,-0.1051200,60.00
2884,-0.1051600,60.00
2885,-0.1052000,60.00
2886,-0.1052400,60.00
2887,-0.1052800,40.00
2888,-0.1053200,60.00
2889,-0.1053600,40.00
2890,-0.1054000,60.00
2891,-0.1054400,40.00
2892,-0.1054800,60.00
2893,-0.1055200,40.00
2894,-0.1055600,60.00
2895,-0.1056000,40.00
2896,-0.1056400,80.00
2897,-0.1056800,60.00
2898,-0.1057200,80.00
2899,-0.1057600,60.00
2900,-0.1058000,80.00
2901,-0.1058400,60.00
2902,-0.1058800,60.00
2903,-0.1059200,40.00
2904,-0.1059600,60.00
2905,-0.1060000,40.00
2906,-0.1060400,60.00
2907,-0.1060800,40.00
2908,-0.1061200,60.00
2909,-0.1061600,40.00
2910,-0.1062000,60.00
2911,-0.1062400,40.00
2912,-0.1062800,60.00
2913,-0.1063200,60.00
2914,-0.1063600,60.00
2915,-0.1064000,40.00
2916,-0.1064400,60.00
2917,-0.1064800,60.00
2918,-0.1065200,60.00
2919,-0.1065600,40.00
2920,-0.1066000,80.00
2921,-0.1066400,40.00
2922,-0.1066800,60.00
2923,-0.1067200,40.00
2924,-0.1067600,60.00
2925,-0.1068000,40.00
2926,-0.1068400,60.00
2927,-0.1068800,40.00
2928,-0.1069200,60.00
2929,-0.1069600,60.00
2930,-0.1070000,60.00
2931,-0.1070400,60.00
2932,-0.1070800,60.00
2933,-0.1071200,60.00
2934,-0.1071600,80.00
2935,-0.1072000,60.00
2936,-0.1072400,80.00
2937,-0.1072800,40.00
2938,-0.1073200,60.00
2939,-0.1073600,40.00
2940,-0.1074000,60.00
2941,-0.1074400,40.00
2942,-0.1074800,60.00
2943,-0.1075200,40.00
2944,-0.1075600,60.00
2945,-0.1076000,40.00
2946,-0.1076400,60.00
2947,-0.1076800,40.00
2948,-0.1077200,60.00
2949,-0.1077600,40.00
2950,-0.1078000,60.00
2951,-0.1078400,60.00
2952,-0.1078800,60.00
2953,-0.1079200,40.00
2954,-0.1079600,60.00
2955,-0.1080000,40.00
2956,-0.1080400,60.00
2957,-0.1080800,40.00
2958,-0.1081200,60.00
2959,-0.1081600,40.00
2960,-0.1082000,60.00
2961,-0.1082400,40.00
2962,-0.1082800,60.00
2963,-0.1083200,40.00
2964,-0.1083600,60.00
2965,-0.1084000,40.00
2966,-0.1084400,60.00
2967,-0.1084800,60.00
2968,-0.1085200,60.00
2969,-0.1085600,40.00
2970,-0.1086000,60.00
2971,-0.1086400,60.00
2972,-0.1086800,60.00
2973,-0.1087200,40.00
2974,-0.1087600,60.00
2975,-0.1088000,40.00
2976,-0.1088400,60.00
2977,-0.1088800,40.00
2978,-0.1089200,60.00
2979,-0.1089600,40.00
2980,-0.1090000,60.00
2981,-0.1090400,40.00
2982,-0.1090800,60.00
2983,-0.1091200,40.00
2984,-0.1091600,80.00
2985,-0.1092000,60.00
2986,-0.1092400,60.00
2987,-0.1092800,40.00
2988,-0.1093200,60.00
2989,-0.1093600,40.00
2990,-0.1094000,60.00
2991,-0.1094400,40.00
2992,-0.1094800,60.00
2993,-0.1095200,40.00
2994,-0.1095600,60.00
2995,-0.1096000,40.00
2996,-0.1096400,60.00
2997,-0.1096800,40.00
2998,-0.1097200,60.00
2999,-0.1097600,40.00
3000,-0.1098000,60.00
3001,-0.1098400,40.00
3002,-0.1098800,60.00
3003,-0.1099200,40.00
3004,-0.1099600,60.00
3005,-0.1100000,60.00
3006,-0.1100400,60.00
3007,-0.1100800,40.00
3008,-0.1101200,60.00
3009,-0.1101600,40.00
3010,-0.1102000,60.00
3011,-0.1102400,40.00
3012,-0.1102800,60.00
3013,-0.1103200,40.00
3014,-0.1103600,60.00
3015,-0.1104000,40.00
3016,-0.1104400,60.00
3017,-0.1104800,40.00
3018,-0.1105200,60.00
3019,-0.1105600,40.00
3020,-0.1106000,60.00
3021,-0.1106400,40.00
3022,-0.1106800,80.00
3023,-0.1107200,40.00
3024,-0.1107600,60.00
3025,-0.1108000,40.00
3026,-0.1108400,60.00
3027,-0.1108800,40.00
3028,-0.1109200,60.00
3029,-0.1109600,40.00
3030,-0.1110000,60.00
3031,-0.1110400,40.00
3032,-0.1110800,60.00
3033,-0.1111200,40.00
3034,-0.1111600,60.00
3035,-0.1112000,40.00
3036,-0.1112400,60.00
3037,-0.1112800,40.00
3038,-0.1113200,60.00
3039,-0.1113600,40.00
3040,-0.1114000,60.00
3041,-0.1114400,40.00
3042,-0.1114800,60.00
3043,-0.1115200,20.00
3044,-0.1115600,60.00
3045,-0.1116000,40.00
3046,-0.1116400,60.00
3047,-0.1116800,40.00
3048,-0.1117200,60.00
3049,-0.1117600,40.00
3050,-0.1118000,60.00
3051,-0.1118400,40.00
3052,-0.1118800,60.00
3053,-0.1119200,40.00
3054,-0.1119600,60.00
3055,-0.1120000,40.00
3056,-0.1120400,60.00
3057,-0.1120800,40.00
3058,-0.1121200,60.00
3059,-0.1121600,40.00
3060,-0.1122000,60.00
3061,-0.1122400,40.00
3062,-0.1122800,40.00
3063,-0.1123200,20.00
3064,-0.1123600,60.00
3065,-0.1124000,40.00
3066,-0.1124400,60.00
3067,-0.1124800,40.00
3068,-0.1125200,60.00
3069,-0.1125600,40.00
3070,-0.1126000,60.00
3071,-0.1126400,40.00
3072,-0.1126800,60.00
3073,-0.1127200,40.00
3074,-0.1127600,60.00
3075,-0.1128000,40.00
3076,-0.1128400,60.00
3077,-0.1128800,40.00
3078,-0.1129200,60.00
3079,-0.1129600,40.00
3080,-0.1130000,60.00
3081,-0.1130400,20.00
3082,-0.1130800,60.00
3083,-0.1131200,40.00
3084,-0.1131600,60.00
3085,-0.1132000,40.00
3086,-0.1132400,60.00
3087,-0.1132800,40.00
3088,-0.1133200,60.00
3089,-0.1133600,40.00
3090,-0.1134000,60.00
3091,-0.1134400,40.00
3092,-0.1134800,60.00
3093,-0.1135200,40.00
3094,-0.1135600,60.00
3095,-0.1136000,40.00
3096,-0.1136400,60.00
3097,-0.1136800,40.00
3098,-0.1137200,60.00
3099,-0.1137600,40.00
3100,-0.1138000,60.00
3101,-0.1138400,40.00
3102,-0.1138800,60.00
3103,-0.1139200,40.00
3104,-0.1139600,60.00
3105,-0.1140000,40.00
3106,-0.1140400,60.00
3107,-0.1140800,40.00
3108,-0.1141200,60.00
3109,-0.1141600,40.00
3110,-0.1142000,80.00
3111,-0.1142400,40.00
3112,-0.1142800,60.00
3113,-0.1143200,40.00
3114,-0.1143600,60.00
3115,-0.1144000,40.00
3116,-0.1144400,60.00
3117,-0.1144800,40.00
3118,-0.1145200,60.00
3119,-0.1145600,40.00
3120,-0.1146000,60.00
3121,-0.1146400,40.00
3122,-0.1146800,60.00
3123,-0.1147200,40.00
3124,-0.1147600,60.00
3125,-0.1148000,40.00
3126,-0.1148400,60.00
3127,-0.1148800,40.00
3128,-0.1149200,60.00
3129,-0.1149600,40.00
3130,-0.1150000,60.00
3131,-0.1150400,40.00
3132,-0.1150800,60.00
3133,-0.1151200,20.00
3134,-0.1151600,60.00
3135,-0.1152000,40.00
3136,-0.1152400,60.00
3137,-0.1152800,40.00
3138,-0.1153200,60.00
3139,-0.1153600,40.00
3140,-0.1154000,60.00
3141,-0.1154400,40.00
3142,-0.1154800,60.00
3143,-0.1155200,40.00
3144,-0.1155600,60.00
3145,-0.1156000,40.00
3146,-0.1156400,60.00
3147,-0.1156800,40.00
3148,-0.1157200,60.00
3149,-0.1157600,40.00
3150,-0.1158000,40.00
3151,-0.1158400,40.00
3152,-0.1158800,60.00
3153,-0.1159200,40.00
3154,-0.1159600,60.00
3155,-0.1160000,40.00
3156,-0.1160400,60.00
3157,-0.1160800,40.00
3158,-0.1161200,60.00
3159,-0.1161600,40.00
3160,-0.1162000,60.00
3161,-0.1162400,40.00
3162,-0.1162800,60.00
3163,-0.1163200,20.00
3164,-0.1163600,60.00
3165,-0.1164000,20.00
3166,-0.1164400,60.00
3167,-0.1164800,40.00
3168,-0.1165200,40.00
3169,-0.1165600,40.00
3170,-0.1166000,40.00
3171,-0.1166400,40.00
3172,-0.1166800,60.00
3173,-0.1167200,40.00
3174,-0.1167600,60.00
3175,-0.1168000,40.00
3176,-0.1168400,60.00
3177,-0.1168800,40.00
3178,-0.1169200,60.00
3179,-0.1169600,40.00
3180,-0.1170000,60.00
3181,-0.1170400,20.00
3182,-0.1170800,60.00
3183,-0.1171200,40.00
3184,-0.1171600,60.00
3185,-0.1172000,40.00
3186,-0.1172400,60.00
3187,-0.1172800,40.00
3188,-0.1173200,60.00
3189,-0.1173600,40.00
3190,-0.1174000,60.00
3191,-0.1174400,40.00
3192,-0.1174800,60.00
3193,-0.1175200,40.00
3194,-0.1175600,60.00
3195,-0.1176000,40.00
3196,-0.1176400,60.00
3197,-0.1176800,40.00
3198,-0.1177200,60.00
3199,-0.1177600,40.00
3200,-0.1178000,40.00
3201,-0.1178400,40.00
3202,-0.1178800,60.00
3203,-0.1179200,20.00
3204,-0.1179600,60.00
3205,-0.1180000,40.00
3206,-0.1180400,60.00
3207,-0.1180800,20.00
3208,-0.1181200,60.00
3209,-0.1181600,40.00
3210,-0.1182000,60.00
3211,-0.1182400,40.00
3212,-0.1182800,60.00
3213,-0.1183200,40.00
3214,-0.1183600,60.00
3215,-0.1184000,40.00
3216,-0.1184400,60.00
3217,-0.1184800,20.00
3218,-0.1185200,60.00
3219,-0.1185600,20.00
3220,-0.1186000,40.00
3221,-0.1186400,40.00
3222,-0.1186800,40.00
3223,-0.1187200,40.00
3224,-0.1187600,60.00
3225,-0.1188000,40.00
3226,-0.1188400,60.00
3227,-0.1188800,40.00
3228,-0.1189200,60.00
3229,-0.1189600,40.00
3230,-0.1190000,60.00
3231,-0.1190400,40.00
3232,-0.1190800,60.00
3233,-0.1191200,20.00
3234,-0.1191600,40.00
3235,-0.1192000,40.00
3236,-0.1192400,60.00
3237,-0.1192800,20.00
3238,-0.1193200,40.00
3239,-0.1193600,20.00
3240,-0.1194000,60.00
3241,-0.1194400,40.00
3242,-0.1194800,60.00
3243,-0.1195200,40.00
3244,-0.1195600,60.00
3245,-0.1196000,40.00
3246,-0.1196400,60.00
3247,-0.1196800,40.00
3248,-0.1197200,60.00
3249,-0.1197600,20.00
3250,-0.1198000,60.00
3251,-0.1198400,20.00
3252,-0.1198800,60.00
3253,-0.1199200,20.00
3254,-0.1199600,40.00
3255,-0.1200000,40.00
3256,-0.1200400,60.00
3257,-0.1200800,40.00
3258,-0.1201200,60.00
3259,-0.1201600,40.00
3260,-0.1202000,60.00
3261,-0.1202400,40.00
3262,-0.1202800,60.00
3263,-0.1203200,40.00
3264,-0.1203600,60.00
3265,-0.1204000,40.00
3266,-0.1204400,60.00
3267,-0.1204800,20.00
3268,-0.1205200,60.00
3269,-0.1205600,20.00
3270,-0.1206000,60.00
3271,-0.1206400,40.00
3272,-0.1206800,40.00
3273,-0.1207200,40.00
3274,-0.1207600,60.00
3275,-0.1208000,40.00
3276,-0.1208400,60.00
3277,-0.1208800,40.00
3278,-0.1209200,60.00
3279,-0.1209600,40.00
3280,-0.1210000,60.00
3281,-0.1210400,40.00
3282,-0.1210800,60.00
3283,-0.1211200,40.00
3284,-0.1211600,60.00
3285,-0.1212000,40.00
3286,-0.1212400,40.00
3287,-0.1212800,20.00
3288,-0.1213200,40.00
3289,-0.1213600,40.00
3290,-0.1214000,60.00
3291,-0.1214400,20.00
3292,-0.1214800,60.00
3293,-0.1215200,20.00
3294,-0.1215600,60.00
3295,-0.1216000,40.00
3296,-0.1216400,60.00
3297,-0.1216800,40.00
3298,-0.1217200,60.00
3299,-0.1217600,40.00
3300,-0.1218000,60.00
3301,-0.1218400,40.00
3302,-0.1218800,60.00
3303,-0.1219200,20.00
3304,-0.1219600,40.00
3305,-0.1220000,20.00
3306,-0.1220400,40.00
3307,-0.1220800,20.00
3308,-0.1221200,40.00
3309,-0.1221600,40.00
3310,-0.1222000,60.00
3311,-0.1222400,40.00
3312,-0.1222800,60.00
3313,-0.1223200,40.00
3314,-0.1223600,60.00
3315,-0.1224000,40.00
3316,-0.1224400,60.00
3317,-0.1224800,40.00
3318,-0.1225200,60.00
3319,-0.1225600,20.00
3320,-0.1226000,60.00
3321,-0.1226400,20.00
3322,-0.1226800,40.00
3323,-0.1227200,40.00
3324,-0.1227600,60.00
3325,-0.1228000,40.00
3326,-0.1228400,60.00
3327,-0.1228800,20.00
3328,-0.1229200,60.00
3329,-0.1229600,40.00
3330,-0.1230000,60.00
3331,-0.1230400,40.00
3332,-0.1230800,60.00
3333,-0.1231200,40.00
3334,-0.1231600,60.00
3335,-0.1232000,40.00
3336,-0.1232400,60.00
3337,-0.1232800,40.00
3338,-0.1233200,40.00
3339,-0.1233600,20.00
3340,-0.1234000,40.00
3341,-0.1234400,20.00
3342,-0.1234800,40.00
3343,-0.1235200,40.00
3344,-0.1235600,40.00
3345,-0.1236000,40.00
3346,-0.1236400,40.00
3347,-0.1236800,40.00
3348,-0.1237200,60.00
3349,-0.1237600,40.00
3350,-0.1238000,60.00
3351,-0.1238400,40.00
3352,-0.1238800,60.00
3353,-0.1239200,20.00
3354,-0.1239600,60.00
3355,-0.1240000,20.00
3356,-0.1240400,40.00
3357,-0.1240800,20.00
3358,-0.1241200,40.00
3359,-0.1241600,40.00
3360,-0.1242000,40.00
3361,-0.1242400,40.00
3362,-0.1242800,60.00
3363,-0.1243200,40.00
3364,-0.1243600,60.00
3365,-0.1244000,40.00
3366,-0.1244400,60.00
3367,-0.1244800,40.00
3368,-0.1245200,60.00
3369,-0.1245600,40.00
3370,-0.1246000,60.00
3371,-0.1246400,20.00
3372,-0.1246800,40.00
3373,-0.1247200,40.00
3374,-0.1247600,60.00
3375,-0.1248000,20.00
3376,-0.1248400,40.00
3377,-0.1248800,20.00
3378,-0.1249200,60.00
3379,-0.1249600,40.00
3380,-0.1250000,60.00
3381,-0.1250400,40.00
3382,-0.1250800,60.00
3383,-0.1251200,40.00
3384,-0.1251600,60.00
3385,-0.1252000,40.00
3386,-0.1252400,60.00
3387,-0.1252800,40.00
3388,-0.1253200,60.00
3389,-0.1253600,40.00
3390,-0.1254000,40.00
3391,-0.1254400,20.00
3392,-0.1254800,40.00
3393,-0.1255200,20.00
3394,-0.1255600,40.00
3395,-0.1256000,40.00
3396,-0.1256400,60.00
3397,-0.1256800,40.00
3398,-0.1257200,60.00
3399,-0.1257600,40.00
3400,-0.1258000,40.00
3401,-0.1258400,40.00
3402,-0.1258800,60.00
3403,-0.1259200,20.00
3404,-0.1259600,60.00
3405,-0.1260000,40.00
3406,-0.1260400,60.00
3407,-0.1260800,20.00
3408,-0.1261200,40.00
3409,-0.1261600,40.00
3410,-0.1262000,40.00
3411,-0.1262400,20.00
3412,-0.1262800,60.00
3413,-0.1263200,40.00
3414,-0.1263600,60.00
3415,-0.1264000,20.00
3416,-0.1264400,60.00
3417,-0.1264800,40.00
3418,-0.1265200,60.00
3419,-0.1265600,40.00
3420,-0.1266000,60.00
3421,-0.1266400,40.00
3422,-0.1266800,60.00
3423,-0.1267200,20.00
3424,-0.1267600,60.00
3425,-0.1268000,40.00
3426,-0.1268400,40.00
3427,-0.1268800,20.00
3428,-0.1269200,40.00
3429,-0.1269600,40.00
3430,-0.1270000,40.00
3431,-0.1270400,40.00
3432,-0.1270800,60.00
3433,-0.1271200,40.00
3434,-0.1271600,60.00
3435,-0.1272000,20.00
3436,-0.1272400,60.00
3437,-0.1272800,40.00
3438,-0.1273200,60.00
3439,-0.1273600,40.00
3440,-0.1274000,40.00
3441,-0.1274400,20.00
3442,-0.1274800,40.00
3443,-0.1275200,40.00
3444,-0.1275600,40.00
3445,-0.1276000,40.00
3446,-0.1276400,40.00
3447,-0.1276800,40.00
3448,-0.1277200,40.00
3449,-0.1277600,20.00
3450,-0.1278000,60.00
3451,-0.1278400,40.00
3452,-0.1278800,60.00
3453,-0.1279200,40.00
3454,-0.1279600,60.00
3455,-0.1280000,40.00
3456,-0.1280400,60.00
3457,-0.1280800,40.00
3458,-0.1281200,60.00
3459,-0.1281600,20.00
3460,-0.1282000,40.00
3461,-0.1282400,40.00
3462,-0.1282800,60.00
3463,-0.1283200,20.00
3464,-0.1283600,40.00
3465,-0.1284000,40.00
3466,-0.1284400,60.00
3467,-0.1284800,40.00
3468,-0.1285200,60.00
3469,-0.1285600,40.00
3470,-0.1286000,60.00
3471,-0.1286400,20.00
3472,-0.1286800,40.00
3473,-0.1287200,40.00
3474,-0.1287600,60.00
3475,-0.1288000,20.00
3476,-0.1288400,60.00
3477,-0.1288800,20.00
3478,-0.1289200,40.00
3479,-0.1289600,20.00
3480,-0.1290000,40.00
3481,-0.1290400,20.00
3482,-0.1290800,60.00
3483,-0.1291200,40.00
3484,-0.1291600,60.00
3485,-0.1292000,40.00
3486,-0.1292400,60.00
3487,-0.1292800,40.00
3488,-0.1293200,60.00
3489,-0.1293600,40.00
3490,-0.1294000,60.00
3491,-0.1294400,40.00
3492,-0.1294800,40.00
3493,-0.1295200,20.00
3494,-0.1295600,60.00
3495,-0.1296000,0.00
3496,-0.1296400,40.00
3497,-0.1296800,20.00
3498,-0.1297200,40.00
3499,-0.1297600,40.00
3500,-0.1298000,60.00
3501,-0.1298400,20.00
3502,-0.1298800,60.00
3503,-0.1299200,40.00
3504,-0.1299600,60.00
3505,-0.1300000,40.00
3506,-0.1300400,40.00
3507,-0.1300800,40.00
3508,-0.1301200,60.00
3509,-0.1301600,20.00
3510,-0.1302000,40.00
3511,-0.1302400,20.00
3512,-0.1302800,40.00
3513,-0.1303200,20.00
3514,-0.1303600,40.00
3515,-0.1304000,20.00
3516,-0.1304400,40.00
3517,-0.1304800,20.00
3518,-0.1305200,40.00
3519,-0.1305600,20.00
3520,-0.1306000,60.00
3521,-0.1306400,40.00
3522,-0.1306800,60.00
3523,-0.1307200,40.00
3524,-0.1307600,60.00
3525,-0.1308000,20.00
3526,-0.1308400,60.00
3527,-0.1308800,40.00
3528,-0.1309200,40.00
3529,-0.1309600,20.00
3530,-0.1310000,40.00
3531,-0.1310400,20.00
3532,-0.1310800,40.00
3533,-0.1311200,40.00
3534,-0.1311600,40.00
3535,-0.1312000,20.00
3536,-0.1312400,60.00
3537,-0.1312800,40.00
3538,-0.1313200,60.00
3539,-0.1313600,40.00
3540,-0.1314000,60.00
3541,-0.1314400,40.00
3542,-0.1314800,60.00
3543,-0.1315200,20.00
3544,-0.1315600,60.00
3545,-0.1316000,20.00
3546,-0.1316400,40.00
3547,-0.1316800,20.00
3548,-0.1317200,40.00
3549,-0.1317600,20.00
3550,-0.1318000,40.00
3551,-0.1318400,20.00
3552,-0.1318800,60.00
3553,-0.1319200,20.00
3554,-0.1319600,60.00
3555,-0.1320000,40.00
3556,-0.1320400,60.00
3557,-0.1320800,40.00
3558,-0.1321200,60.00
3559,-0.1321600,40.00
3560,-0.1322000,60.00
3561,-0.1322400,40.00
3562,-0.1322800,40.00
3563,-0.1323200,20.00
3564,-0.1323600,40.00
3565,-0.1324000,20.00
3566,-0.1324400,40.00
3567,-0.1324800,20.00
3568,-0.1325200,40.00
3569,-0.1325600,20.00
3570,-0.1326000,60.00
3571,-0.1326400,40.00
3572,-0.1326800,60.00
3573,-0.1327200,40.00
3574,-0.1327600,40.00
3575,-0.1328000,40.00
3576,-0.1328400,60.00
3577,-0.1328800,40.00
3578,-0.1329200,60.00
3579,-0.1329600,20.00
3580,-0.1330000,60.00
3581,-0.1330400,20.00
3582,-0.1330800,40.00
3583,-0.1331200,40.00
3584,-0.1331600,60.00
3585,-0.1332000,20.00
3586,-0.1332400,40.00
3587,-0.1332800,40.00
3588,-0.1333200,60.00
3589,-0.1333600,40.00
3590,-0.1334000,60.00
3591,-0.1334400,40.00
3592,-0.1334800,60.00
3593,-0.1335200,40.00
3594,-0.1335600,60.00
3595,-0.1336000,20.00
3596,-0.1336400,60.00
3597,-0.1336800,20.00
3598,-0.1337200,40.00
3599,-0.1337600,20.00
3600,-0.1338000,60.00
3601,-0.1338400,20.00
3602,-0.1338800,40.00
3603,-0.1339200,20.00
3604,-0.1339600,60.00
3605,-0.1340000,20.00
3606,-0.1340400,40.00
3607,-0.1340800,40.00
3608,-0.1341200,60.00
3609,-0.1341600,40.00
3610,-0.1342000,60.00
3611,-0.1342400,40.00
3612,-0.1342800,60.00
3613,-0.1343200,20.00
3614,-0.1343600,60.00
3615,-0.1344000,20.00
3616,-0.1344400,40.00
3617,-0.1344800,20.00
3618,-0.1345200,40.00
3619,-0.1345600,20.00
3620,-0.1346000,40.00
3621,-0.1346400,20.00
3622,-0.1346800,60.00
3623,-0.1347200,40.00
3624,-0.1347600,40.00
3625,-0.1348000,40.00
3626,-0.1348400,60.00
3627,-0.1348800,40.00
3628,-0.1349200,60.00
3629,-0.1349600,40.00
3630,-0.1350000,60.00
3631,-0.1350400,40.00
3632,-0.1350800,60.00
3633,-0.1351200,40.00
3634,-0.1351600,60.00
3635,-0.1352000,20.00
3636,-0.1352400,40.00
3637,-0.1352800,20.00
3638,-0.1353200,40.00
3639,-0.1353600,20.00
3640,-0.1354000,60.00
3641,-0.1354400,40.00
3642,-0.1354800,60.00
3643,-0.1355200,40.00
3644,-0.1355600,60.00
3645,-0.1356000,40.00
3646,-0.1356400,60.00
3647,-0.1356800,20.00
3648,-0.1357200,60.00
3649,-0.1357600,20.00
3650,-0.1358000,40.00
3651,-0.1358400,20.00
3652,-0.1358800,40.00
3653,-0.1359200,20.00
3654,-0.1359600,40.00
3655,-0.1360000,20.00
3656,-0.1360400,60.00
3657,-0.1360800,20.00
3658,-0.1361200,60.00
3659,-0.1361600,40.00
3660,-0.1362000,60.00
3661,-0.1362400,40.00
3662,-0.1362800,60.00
3663,-0.1363200,40.00
3664,-0.1363600,60.00
3665,-0.1364000,20.00
3666,-0.1364400,60.00
3667,-0.1364800,20.00
3668,-0.1365200,40.00
3669,-0.1365600,40.00
3670,-0.1366000,60.00
3671,-0.1366400,20.00
3672,-0.1366800,40.00
3673,-0.1367200,40.00
3674,-0.1367600,60.00
3675,-0.1368000,20.00
3676,-0.1368400,60.00
3677,-0.1368800,40.00
3678,-0.1369200,40.00
3679,-0.1369600,40.00
3680,-0.1370000,60.00
3681,-0.1370400,40.00
3682,-0.1370800,60.00
3683,-0.1371200,40.00
3684,-0.1371600,40.00
3685,-0.1372000,0.00
3686,-0.1372400,40.00
3687,-0.1372800,20.00
3688,-0.1373200,40.00
3689,-0.1373600,40.00
3690,-0.1374000,60.00
3691,-0.1374400,20.00
3692,-0.1374800,60.00
3693,-0.1375200,40.00
3694,-0.1375600,60.00
3695,-0.1376000,40.00
3696,-0.1376400,60.00
3697,-0.1376800,40.00
3698,-0.1377200,60.00
3699,-0.1377600,20.00
3700,-0.1378000,60.00
3701,-0.1378400,40.00
3702,-0.1378800,60.00
3703,-0.1379200,20.00
3704,-0.1379600,40.00
3705,-0.1380000,20.00
3706,-0.1380400,40.00
3707,-0.1380800,40.00
3708,-0.1381200,40.00
3709,-0.1381600,40.00
3710,-0.1382000,60.00
3711,-0.1382400,40.00
3712,-0.1382800,60.00
3713,-0.1383200,40.00
3714,-0.1383600,60.00
3715,-0.1384000,40.00
3716,-0.1384400,60.00
3717,-0.1384800,20.00
3718,-0.1385200,60.00
3719,-0.1385600,20.00
3720,-0.1386000,60.00
3721,-0.1386400,20.00
3722,-0.1386800,40.00
3723,-0.1387200,20.00
3724,-0.1387600,40.00
3725,-0.1388000,40.00
3726,-0.1388400,40.00
3727,-0.1388800,40.00
3728,-0.1389200,60.00
3729,-0.1389600,40.00
3730,-0.1390000,60.00
3731,-0.1390400,40.00
3732,-0.1390800,60.00
3733,-0.1391200,40.00
3734,-0.1391600,60.00
3735,-0.1392000,20.00
3736,-0.1392400,40.00
3737,-0.1392800,0.00
3738,-0.1393200,40.00
3739,-0.1393600,40.00
3740,-0.1394000,40.00
3741,-0.1394400,20.00
3742,-0.1394800,60.00
3743,-0.1395200,20.00
3744,-0.1395600,60.00
3745,-0.1396000,40.00
3746,-0.1396400,60.00
3747,-0.1396800,40.00
3748,-0.1397200,60.00
3749,-0.1397600,40.00
3750,-0.1398000,60.00
3751,-0.1398400,40.00
3752,-0.1398800,60.00
3753,-0.1399200,20.00
3754,-0.1399600,60.00
3755,-0.1400000,20.00
3756,-0.1400400,40.00
3757,-0.1400800,0.00
3758,-0.1401200,40.00
3759,-0.1401600,40.00
3760,-0.1402000,40.00
3761,-0.1402400,20.00
3762,-0.1402800,60.00
3763,-0.1403200,40.00
3764,-0.1403600,40.00
3765,-0.1404000,40.00
3766,-0.1404400,60.00
3767,-0.1404800,40.00
3768,-0.1405200,60.00
3769,-0.1405600,20.00
3770,-0.1406000,60.00
3771,-0.1406400,20.00
3772,-0.1406800,40.00
3773,-0.1407200,20.00
3774,-0.1407600,40.00
3775,-0.1408000,0.00
3776,-0.1408400,40.00
3777,-0.1408800,20.00
3778,-0.1409200,60.00
3779,-0.1409600,20.00
3780,-0.1410000,60.00
3781,-0.1410400,40.00
3782,-0.1410800,60.00
3783,-0.1411200,40.00
3784,-0.1411600,40.00
3785,-0.1412000,40.00
3786,-0.1412400,60.00
3787,-0.1412800,20.00
3788,-0.1413200,40.00
3789,-0.1413600,20.00
3790,-0.1414000,40.00
3791,-0.1414400,0.00
3792,-0.1414800,40.00
3793,-0.1415200,40.00
3794,-0.1415600,60.00
3795,-0.1416000,40.00
3796,-0.1416400,60.00
3797,-0.1416800,40.00
3798,-0.1417200,60.00
3799,-0.1417600,20.00
3800,-0.1418000,60.00
3801,-0.1418400,40.00
3802,-0.1418800,60.00
3803,-0.1419200,20.00
3804,-0.1419600,60.00
3805,-0.1420000,40.00
3806,-0.1420400,40.00
3807,-0.1420800,20.00
3808,-0.1421200,40.00
3809,-0.1421600,20.00
3810,-0.1422000,40.00
3811,-0.1422400,20.00
3812,-0.1422800,40.00
3813,-0.1423200,20.00
3814,-0.1423600,60.00
3815,-0.1424000,40.00
3816,-0.1424400,60.00
3817,-0.1424800,40.00
3818,-0.1425200,60.00
3819,-0.1425600,40.00
3820,-0.1426000,60.00
3821,-0.1426400,20.00
3822,-0.1426800,40.00
3823,-0.1427200,20.00
3824,-0.1427600,40.00
3825,-0.1428000,20.00
3826,-0.1428400,40.00
3827,-0.1428800,20.00
3828,-0.1429200,60.00
3829,-0.1429600,20.00
3830,-0.1430000,40.00
3831,-0.1430400,40.00
3832,-0.1430800,60.00
3833,-0.1431200,40.00
3834,-0.1431600,60.00
3835,-0.1432000,40.00
3836,-0.1432400,60.00
3837,-0.1432800,20.00
3838,-0.1433200,60.00
3839,-0.1433600,20.00
3840,-0.1434000,40.00
3841,-0.1434400,20.00
3842,-0.1434800,40.00
3843,-0.1435200,20.00
3844,-0.1435600,40.00
3845,-0.1436000,20.00
3846,-0.1436400,40.00
3847,-0.1436800,20.00
3848,-0.1437200,40.00
3849,-0.1437600,20.00
3850,-0.1438000,60.00
3851,-0.1438400,20.00
3852,-0.1438800,60.00
3853,-0.1439200,40.00
3854,-0.1439600,60.00
3855,-0.1440000,20.00
3856,-0.1440400,40.00
3857,-0.1440800,20.00
3858,-0.1441200,40.00
3859,-0.1441600,20.00
3860,-0.1442000,60.00
3861,-0.1442400,0.00
3862,-0.1442800,40.00
3863,-0.1443200,20.00
3864,-0.1443600,40.00
3865,-0.1444000,20.00
3866,-0.1444400,40.00
3867,-0.1444800,20.00
3868,-0.1445200,60.00
3869,-0.1445600,20.00
3870,-0.1446000,60.00
3871,-0.1446400,40.00
3872,-0.1446800,60.00
3873,-0.1447200,20.00
3874,-0.1447600,40.00
3875,-0.1448000,20.00
3876,-0.1448400,40.00
3877,-0.1448800,20.00
3878,-0.1449200,40.00
3879,-0.1449600,0.00
3880,-0.1450000,40.00
3881,-0.1450400,20.00
3882,-0.1450800,60.00
3883,-0.1451200,20.00
3884,-0.1451600,60.00
3885,-0.1452000,40.00
3886,-0.1452400,60.00
3887,-0.1452800,40.00
3888,-0.1453200,60.00
3889,-0.1453600,20.00
3890,-0.1454000,60.00
3891,-0.1454400,0.00
3892,-0.1454800,60.00
3893,-0.1455200,20.00
3894,-0.1455600,40.00
3895,-0.1456000,40.00
3896,-0.1456400,40.00
3897,-0.1456800,20.00
3898,-0.1457200,40.00
3899,-0.1457600,20.00
3900,-0.1458000,40.00
3901,-0.1458400,40.00
3902,-0.1458800,60.00
3903,-0.1459200,40.00
3904,-0.1459600,60.00
3905,-0.1460000,40.00
3906,-0.1460400,40.00
3907,-0.1460800,20.00
3908,-0.1461200,40.00
3909,-0.1461600,20.00
3910,-0.1462000,40.00
3911,-0.1462400,40.00
3912,-0.1462800,40.00
3913,-0.1463200,0.00
3914,-0.1463600,40.00
3915,-0.1464000,40.00
3916,-0.1464400,40.00
3917,-0.1464800,20.00
3918,-0.1465200,40.00
3919,-0.1465600,40.00
3920,-0.1466000,60.00
3921,-0.1466400,40.00
3922,-0.1466800,60.00
3923,-0.1467200,20.00
3924,-0.1467600,60.00
3925,-0.1468000,0.00
3926,-0.1468400,40.00
3927,-0.1468800,20.00
3928,-0.1469200,40.00
3929,-0.1469600,20.00
3930,-0.1470000,40.00
3931,-0.1470400,0.00
3932,-0.1470800,40.00
3933,-0.1471200,0.00
3934,-0.1471600,40.00
3935,-0.1472000,40.00
3936,-0.1472400,60.00
3937,-0.1472800,40.00
3938,-0.1473200,40.00
3939,-0.1473600,40.00
3940,-0.1474000,60.00
3941,-0.1474400,40.00
3942,-0.1474800,40.00
3943,-0.1475200,20.00
3944,-0.1475600,40.00
3945,-0.1476000,20.00
3946,-0.1476400,40.00
3947,-0.1476800,20.00
3948,-0.1477200,40.00
3949,-0.1477600,20.00
3950,-0.1478000,40.00
3951,-0.1478400,20.00
3952,-0.1478800,40.00
3953,-0.1479200,20.00
3954,-0.1479600,40.00
3955,-0.1480000,40.00
3956,-0.1480400,60.00
3957,-0.1480800,40.00
3958,-0.1481200,60.00
3959,-0.1481600,20.00
3960,-0.1482000,60.00
3961,-0.1482400,20.00
3962,-0.1482800,40.00
3963,-0.1483200,20.00
3964,-0.1483600,40.00
3965,-0.1484000,0.00
3966,-0.1484400,40.00
3967,-0.1484800,20.00
3968,-0.1485200,60.00
3969,-0.1485600,20.00
3970,-0.1486000,40.00
3971,-0.1486400,40.00
3972,-0.1486800,60.00
3973,-0.1487200,40.00
3974,-0.1487600,60.00
3975,-0.1488000,40.00
3976,-0.1488400,60.00
3977,-0.1488800,0.00
3978,-0.1489200,40.00
3979,-0.1489600,0.00
3980,-0.1490000,40.00
3981,-0.1490400,20.00
3982,-0.1490800,40.00
3983,-0.1491200,20.00
3984,-0.1491600,40.00
3985,-0.1492000,0.00
3986,-0.1492400,40.00
3987,-0.1492800,20.00
3988,-0.1493200,60.00
3989,-0.1493600,40.00
3990,-0.1494000,40.00
3991,-0.1494400,20.00
3992,-0.1494800,40.00
3993,-0.1495200,40.00
3994,-0.1495600,40.00
3995,-0.1496000,20.00
3996,-0.1496400,40.00
3997,-0.1496800,20.00
3998,-0.1497200,40.00
3999,-0.1497600,20.00
4000,-0.1498000,40.00
4001,-0.1498400,0.00
4002,-0.1498800,40.00
4003,-0.1499200,20.00
4004,-0.1499600,60.00
4005,-0.1500000,20.00
4006,-0.1500400,40.00
4007,-0.1500800,20.00
4008,-0.1501200,60.00
4009,-0.1501600,40.00
4010,-0.1502000,60.00
4011,-0.1502400,40.00
4012,-0.1502800,40.00
4013,-0.1503200,20.00
4014,-0.1503600,40.00
4015,-0.1504000,20.00
4016,-0.1504400,40.00
4017,-0.1504800,20.00
4018,-0.1505200,40.00
4019,-0.1505600,40.00
4020,-0.1506000,40.00
4021,-0.1506400,20.00
4022,-0.1506800,60.00
4023,-0.1507200,40.00
4024,-0.1507600,60.00
4025,-0.1508000,20.00
4026,-0.1508400,60.00
4027,-0.1508800,40.00
4028,-0.1509200,40.00
4029,-0.1509600,20.00
4030,-0.1510000,40.00
4031,-0.1510400,20.00
4032,-0.1510800,40.00
4033,-0.1511200,20.00
4034,-0.1511600,40.00
4035,-0.1512000,20.00
4036,-0.1512400,40.00
4037,-0.1512800,20.00
4038,-0.1513200,60.00
4039,-0.1513600,40.00
4040,-0.1514000,40.00
4041,-0.1514400,40.00
4042,-0.1514800,40.00
4043,-0.1515200,40.00
4044,-0.1515600,40.00
4045,-0.1516000,40.00
4046,-0.1516400,60.00
4047,-0.1516800,20.00
4048,-0.1517200,40.00
4049,-0.1517600,20.00
4050,-0.1518000,40.00
4051,-0.1518400,0.00
4052,-0.1518800,40.00
4053,-0.1519200,0.00
4054,-0.1519600,40.00
4055,-0.1520000,20.00
4056,-0.1520400,40.00
4057,-0.1520800,40.00
4058,-0.1521200,60.00
4059,-0.1521600,40.00
4060,-0.1522000,40.00
4061,-0.1522400,20.00
4062,-0.1522800,60.00
4063,-0.1523200,0.00
4064,-0.1523600,60.00
4065,-0.1524000,0.00
4066,-0.1524400,40.00
4067,-0.1524800,0.00
4068,-0.1525200,60.00
4069,-0.1525600,20.00
4070,-0.1526000,40.00
4071,-0.1526400,20.00
4072,-0.1526800,40.00
4073,-0.1527200,20.00
4074,-0.1527600,60.00
4075,-0.1528000,20.00
4076,-0.1528400,60.00
4077,-0.1528800,40.00
4078,-0.1529200,40.00
4079,-0.1529600,40.00
4080,-0.1530000,60.00
4081,-0.1530400,20.00
4082,-0.1530800,40.00
4083,-0.1531200,0.00
4084,-0.1531600,40.00
4085,-0.1532000,20.00
4086,-0.1532400,40.00
4087,-0.1532800,20.00
4088,-0.1533200,40.00
4089,-0.1533600,0.00
4090,-0.1534000,40.00
4091,-0.1534400,20.00
4092,-0.1534800,60.00
4093,-0.1535200,40.00
4094,-0.1535600,60.00
4095,-0.1536000,20.00
4096,-0.1536400,60.00
4097,-0.1536800,40.00
4098,-0.1537200,40.00
4099,-0.1537600,0.00
4100,-0.1538000,40.00
4101,-0.1538400,20.00
4102,-0.1538800,40.00
4103,-0.1539200,0.00
4104,-0.1539600,40.00
4105,-0.1540000,0.00
4106,-0.1540400,40.00
4107,-0.1540800,20.00
4108,-0.1541200,40.00
4109,-0.1541600,20.00
4110,-0.1542000,40.00
4111,-0.1542400,20.00
4112,-0.1542800,40.00
4113,-0.1543200,20.00
4114,-0.1543600,40.00
4115,-0.1544000,20.00
4116,-0.1544400,60.00
4117,-0.1544800,20.00
4118,-0.1545200,40.00
4119,-0.1545600,20.00
4120,-0.1546000,40.00
4121,-0.1546400,0.00
4122,-0.1546800,40.00
4123,-0.1547200,40.00
4124,-0.1547600,40.00
4125,-0.1548000,20.00
4126,-0.1548400,40.00
4127,-0.1548800,40.00
4128,-0.1549200,40.00
4129,-0.1549600,40.00
4130,-0.1550000,60.00
4131,-0.1550400,20.00
4132,-0.1550800,40.00
4133,-0.1551200,20.00
4134,-0.1551600,40.00
4135,-0.1552000,0.00
4136,-0.1552400,40.00
4137,-0.1552800,20.00
4138,-0.1553200,40.00
4139,-0.1553600,20.00
4140,-0.1554000,40.00
4141,-0.1554400,0.00
4142,-0.1554800,60.00
4143,-0.1555200,20.00
4144,-0.1555600,60.00
4145,-0.1556000,40.00
4146,-0.1556400,60.00
4147,-0.1556800,20.00
4148,-0.1557200,60.00
4149,-0.1557600,40.00
4150,-0.1558000,60.00
4151,-0.1558400,20.00
4152,-0.1558800,40.00
4153,-0.1559200,20.00
4154,-0.1559600,40.00
4155,-0.1560000,0.00
4156,-0.1560400,40.00
4157,-0.1560800,20.00
4158,-0.1561200,60.00
4159,-0.1561600,20.00
4160,-0.1562000,60.00
4161,-0.1562400,0.00
4162,-0.1562800,40.00
4163,-0.1563200,20.00
4164,-0.1563600,60.00
4165,-0.1564000,20.00
4166,-0.1564400,40.00
4167,-0.1564800,20.00
4168,-0.1565200,40.00
4169,-0.1565600,20.00
4170,-0.1566000,40.00
4171,-0.1566400,0.00
4172,-0.1566800,40.00
4173,-0.1567200,0.00
4174,-0.1567600,40.00
4175,-0.1568000,20.00
4176,-0.1568400,60.00
4177,-0.1568800,20.00
4178,-0.1569200,40.00
4179,-0.1569600,20.00
4180,-0.1570000,60.00
4181,-0.1570400,40.00
4182,-0.1570800,40.00
4183,-0.1571200,20.00
4184,-0.1571600,60.00
4185,-0.1572000,20.00
4186,-0.1572400,40.00
4187,-0.1572800,20.00
4188,-0.1573200,40.00
4189,-0.1573600,20.00
4190,-0.1574000,40.00
4191,-0.1574400,20.00
4192,-0.1574800,40.00
4193,-0.1575200,20.00
4194,-0.1575600,40.00
4195,-0.1576000,40.00
4196,-0.1576400,60.00
4197,-0.1576800,20.00
4198,-0.1577200,40.00
4199,-0.1577600,20.00
4200,-0.1578000,60.00
4201,-0.1578400,0.00
4202,-0.1578800,40.00
4203,-0.1579200,20.00
4204,-0.1579600,40.00
4205,-0.1580000,20.00
4206,-0.1580400,40.00
4207,-0.1580800,20.00
4208,-0.1581200,40.00
4209,-0.1581600,20.00
4210,-0.1582000,40.00
4211,-0.1582400,20.00
4212,-0.1582800,40.00
4213,-0.1583200,40.00
4214,-0.1583600,40.00
4215,-0.1584000,20.00
4216,-0.1584400,40.00
4217,-0.1584800,20.00
4218,-0.1585200,40.00
4219,-0.1585600,20.00
4220,-0.1586000,40.00
4221,-0.1586400,20.00
4222,-0.1586800,40.00
4223,-0.1587200,0.00
4224,-0.1587600,40.00
4225,-0.1588000,0.00
4226,-0.1588400,40.00
4227,-0.1588800,20.00
4228,-0.1589200,40.00
4229,-0.1589600,20.00
4230,-0.1590000,60.00
4231,-0.1590400,40.00
4232,-0.1590800,60.00
4233,-0.1591200,20.00
4234,-0.1591600,60.00
4235,-0.1592000,40.00
4236,-0.1592400,40.00
4237,-0.1592800,0.00
4238,-0.1593200,40.00
4239,-0.1593600,20.00
4240,-0.1594000,40.00
4241,-0.1594400,20.00
4242,-0.1594800,40.00
4243,-0.1595200,20.00
4244,-0.1595600,40.00
4245,-0.1596000,40.00
4246,-0.1596400,40.00
4247,-0.1596800,40.00
4248,-0.1597200,40.00
4249,-0.1597600,20.00
4250,-0.1598000,60.00
4251,-0.1598400,20.00
4252,-0.1598800,60.00
4253,-0.1599200,20.00
4254,-0.1599600,60.00
4255,-0.1600000,20.00
4256,-0.1600400,40.00
4257,-0.1600800,20.00
4258,-0.1601200,40.00
4259,-0.1601600,20.00
4260,-0.1602000,40.00
4261,-0.1602400,20.00
4262,-0.1602800,40.00
4263,-0.1603200,20.00
4264,-0.1603600,40.00
4265,-0.1604000,40.00
4266,-0.1604400,60.00
4267,-0.1604800,20.00
4268,-0.1605200,40.00
4269,-0.1605600,40.00
4270,-0.1606000,40.00
4271,-0.1606400,20.00
4272,-0.1606800,60.00
4273,-0.1607200,0.00
4274,-0.1607600,40.00
4275,-0.1608000,20.00
4276,-0.1608400,40.00
4277,-0.1608800,20.00
4278,-0.1609200,40.00
4279,-0.1609600,20.00
4280,-0.1610000,40.00
4281,-0.1610400,20.00
4282,-0.1610800,40.00
4283,-0.1611200,40.00
4284,-0.1611600,40.00
4285,-0.1612000,40.00
4286,-0.1612400,60.00
4287,-0.1612800,20.00
4288,-0.1613200,40.00
4289,-0.1613600,20.00
4290,-0.1614000,60.00
4291,-0.1614400,0.00
4292,-0.1614800,40.00
4293,-0.1615200,20.00
4294,-0.1615600,40.00
4295,-0.1616000,20.00
4296,-0.1616400,40.00
4297,-0.1616800,20.00
4298,-0.1617200,40.00
4299,-0.1617600,20.00
4300,-0.1618000,40.00
4301,-0.1618400,20.00
4302,-0.1618800,60.00
4303,-0.1619200,40.00
4304,-0.1619600,40.00
4305,-0.1620000,20.00
4306,-0.1620400,40.00
4307,-0.1620800,20.00
4308,-0.1621200,60.00
4309,-0.1621600,20.00
4310,-0.1622000,40.00
4311,-0.1622400,20.00
4312,-0.1622800,40.00
4313,-0.1623200,20.00
4314,-0.1623600,40.00
4315,-0.1624000,20.00
4316,-0.1624400,40.00
4317,-0.1624800,40.00
4318,-0.1625200,40.00
4319,-0.1625600,20.00
4320,-0.1626000,40.00
4321,-0.1626400,40.00
4322,-0.1626800,60.00
4323,-0.1627200,0.00
4324,-0.1627600,60.00
4325,-0.1628000,20.00
4326,-0.1628400,40.00
4327,-0.1628800,20.00
4328,-0.1629200,60.00
4329,-0.1629600,20.00
4330,-0.1630000,40.00
4331,-0.1630400,40.00
4332,-0.1630800,40.00
4333,-0.1631200,40.00
4334,-0.1631600,40.00
4335,-0.1632000,20.00
4336,-0.1632400,60.00
4337,-0.1632800,40.00
4338,-0.1633200,60.00
4339,-0.1633600,20.00
4340,-0.1634000,60.00
4341,-0.1634400,20.00
4342,-0.1634800,40.00
4343,-0.1635200,0.00
4344,-0.1635600,40.00
4345,-0.1636000,20.00
4346,-0.1636400,40.00
4347,-0.1636800,0.00
4348,-0.1637200,40.00
4349,-0.1637600,20.00
4350,-0.1638000,40.00
4351,-0.1638400,40.00
4352,-0.1638800,60.00
4353,-0.1639200,40.00
4354,-0.1639600,60.00
4355,-0.1640000,20.00
4356,-0.1640400,60.00
4357,-0.1640800,20.00
4358,-0.1641200,40.00
4359,-0.1641600,20.00
4360,-0.1642000,40.00
4361,-0.1642400,20.00
4362,-0.1642800,40.00
4363,-0.1643200,20.00
4364,-0.1643600,40.00
4365,-0.1644000,40.00
4366,-0.1644400,60.00
4367,-0.1644800,40.00
4368,-0.1645200,40.00
4369,-0.1645600,40.00
4370,-0.1646000,60.00
4371,-0.1646400,20.00
4372,-0.1646800,60.00
4373,-0.1647200,40.00
4374,-0.1647600,60.00
4375,-0.1648000,20.00
4376,-0.1648400,60.00
4377,-0.1648800,20.00
4378,-0.1649200,40.00
4379,-0.1649600,0.00
4380,-0.1650000,40.00
4381,-0.1650400,0.00
4382,-0.1650800,40.00
4383,-0.1651200,20.00
4384,-0.1651600,40.00
4385,-0.1652000,40.00
4386,-0.1652400,60.00
4387,-0.1652800,20.00
4388,-0.1653200,60.00
4389,-0.1653600,40.00
4390,-0.1654000,60.00
4391,-0.1654400,40.00
4392,-0.1654800,60.00
4393,-0.1655200,0.00
4394,-0.1655600,40.00
4395,-0.1656000,20.00
4396,-0.1656400,40.00
4397,-0.1656800,20.00
4398,-0.1657200,40.00
4399,-0.1657600,20.00
4400,-0.1658000,40.00
4401,-0.1658400,20.00
4402,-0.1658800,40.00
4403,-0.1659200,20.00
4404,-0.1659600,40.00
4405,-0.1660000,40.00
4406,-0.1660400,60.00
4407,-0.1660800,40.00
4408,-0.1661200,60.00
4409,-0.1661600,20.00
4410,-0.1662000,40.00
4411,-0.1662400,20.00
4412,-0.1662800,40.00
4413,-0.1663200,20.00
4414,-0.1663600,40.00
4415,-0.1664000,0.00
4416,-0.1664400,40.00
4417,-0.1664800,40.00
4418,-0.1665200,40.00
4419,-0.1665600,20.00
4420,-0.1666000,40.00
4421,-0.1666400,20.00
4422,-0.1666800,40.00
4423,-0.1667200,20.00
4424,-0.1667600,40.00
4425,-0.1668000,20.00
4426,-0.1668400,60.00
4427,-0.1668800,20.00
4428,-0.1669200,40.00
4429,-0.1669600,20.00
4430,-0.1670000,40.00
4431,-0.1670400,20.00
4432,-0.1670800,40.00
4433,-0.1671200,20.00
4434,-0.1671600,40.00
4435,-0.1672000,40.00
4436,-0.1672400,40.00
4437,-0.1672800,20.00
4438,-0.1673200,40.00
4439,-0.1673600,40.00
4440,-0.1674000,60.00
4441,-0.1674400,40.00
4442,-0.1674800,60.00
4443,-0.1675200,20.00
4444,-0.1675600,60.00
4445,-0.1676000,20.00
4446,-0.1676400,40.00
4447,-0.1676800,20.00
4448,-0.1677200,40.00
4449,-0.1677600,0.00
4450,-0.1678000,40.00
4451,-0.1678400,0.00
4452,-0.1678800,40.00
4453,-0.1679200,20.00
4454,-0.1679600,40.00
4455,-0.1680000,40.00
4456,-0.1680400,40.00
4457,-0.1680800,40.00
4458,-0.1681200,60.00
4459,-0.1681600,40.00
4460,-0.1682000,60.00
4461,-0.1682400,20.00
4462,-0.1682800,40.00
4463,-0.1683200,20.00
4464,-0.1683600,40.00
4465,-0.1684000,20.00
4466,-0.1684400,40.00
4467,-0.1684800,0.00
4468,-0.1685200,40.00
4469,-0.1685600,20.00
4470,-0.1686000,40.00
4471,-0.1686400,20.00
4472,-0.1686800,60.00
4473,-0.1687200,20.00
4474,-0.1687600,40.00
4475,-0.1688000,40.00
4476,-0.1688400,60.00
4477,-0.1688800,20.00
4478,-0.1689200,40.00
4479,-0.1689600,20.00
4480,-0.1690000,40.00
4481,-0.1690400,20.00
4482,-0.1690800,40.00
4483,-0.1691200,20.00
4484,-0.1691600,40.00
4485,-0.1692000,20.00
4486,-0.1692400,40.00
4487,-0.1692800,20.00
4488,-0.1693200,60.00
4489,-0.1693600,40.00
4490,-0.1694000,40.00
4491,-0.1694400,20.00
4492,-0.1694800,60.00
4493,-0.1695200,20.00
4494,-0.1695600,40.00
4495,-0.1696000,20.00
4496,-0.1696400,60.00
4497,-0.1696800,20.00
4498,-0.1697200,40.00
4499,-0.1697600,20.00
4500,-0.1698000,40.00
4501,-0.1698400,0.00
4502,-0.1698800,40.00
4503,-0.1699200,20.00
4504,-0.1699600,40.00
4505,-0.1700000,40.00
4506,-0.1700400,40.00
4507,-0.1700800,20.00
4508,-0.1701200,60.00
4509,-0.1701600,40.00
4510,-0.1702000,60.00
4511,-0.1702400,40.00
4512,-0.1702800,60.00
4513,-0.1703200,40.00
4514,-0.1703600,40.00
4515,-0.1704000,0.00
4516,-0.1704400,40.00
4517,-0.1704800,0.00
4518,-0.1705200,40.00
4519,-0.1705600,0.00
4520,-0.1706000,40.00
4521,-0.1706400,20.00
4522,-0.1706800,40.00
4523,-0.1707200,20.00
4524,-0.1707600,60.00
4525,-0.1708000,20.00
4526,-0.1708400,60.00
4527,-0.1708800,40.00
4528,-0.1709200,60.00
4529,-0.1709600,40.00
4530,-0.1710000,40.00
4531,-0.1710400,20.00
4532,-0.1710800,40.00
4533,-0.1711200,20.00
4534,-0.1711600,40.00
4535,-0.1712000,0.00
4536,-0.1712400,40.00
4537,-0.1712800,0.00
4538,-0.1713200,40.00
4539,-0.1713600,20.00
4540,-0.1714000,40.00
4541,-0.1714400,40.00
4542,-0.1714800,40.00
4543,-0.1715200,40.00
4544,-0.1715600,40.00
4545,-0.1716000,40.00
4546,-0.1716400,40.00
4547,-0.1716800,40.00
4548,-0.1717200,40.00
4549,-0.1717600,0.00
4550,-0.1718000,40.00
4551,-0.1718400,20.00
4552,-0.1718800,40.00
4553,-0.1719200,20.00
4554,-0.1719600,40.00
4555,-0.1720000,20.00
4556,-0.1720400,40.00
4557,-0.1720800,20.00
4558,-0.1721200,40.00
4559,-0.1721600,40.00
4560,-0.1722000,40.00
4561,-0.1722400,40.00
4562,-0.1722800,60.00
4563,-0.1723200,40.00
4564,-0.1723600,60.00
4565,-0.1724000,20.00
4566,-0.1724400,40.00
4567,-0.1724800,20.00
4568,-0.1725200,40.00
4569,-0.1725600,20.00
4570,-0.1726000,40.00
4571,-0.1726400,0.00
4572,-0.1726800,40.00
4573,-0.1727200,40.00
4574,-0.1727600,40.00
4575,-0.1728000,20.00
4576,-0.1728400,60.00
4577,-0.1728800,20.00
4578,-0.1729200,40.00
4579,-0.1729600,20.00
4580,-0.1730000,60.00
4581,-0.1730400,40.00
4582,-0.1730800,60.00
4583,-0.1731200,20.00
4584,-0.1731600,40.00
4585,-0.1732000,0.00
4586,-0.1732400,40.00
4587,-0.1732800,0.00
4588,-0.1733200,40.00
4589,-0.1733600,20.00
4590,-0.1734000,40.00
4591,-0.1734400,20.00
4592,-0.1734800,40.00
4593,-0.1735200,40.00
4594,-0.1735600,40.00
4595,-0.1736000,20.00
4596,-0.1736400,40.00
4597,-0.1736800,20.00
4598,-0.1737200,40.00
4599,-0.1737600,20.00
4600,-0.1738000,40.00
4601,-0.1738400,0.00
4602,-0.1738800,40.00
4603,-0.1739200,0.00
4604,-0.1739600,40.00
4605,-0.1740000,20.00
4606,-0.1740400,40.00
4607,-0.1740800,20.00
4608,-0.1741200,40.00
4609,-0.1741600,20.00
4610,-0.1742000,40.00
4611,-0.1742400,40.00
4612,-0.1742800,60.00
4613,-0.1743200,40.00
4614,-0.1743600,60.00
4615,-0.1744000,40.00
4616,-0.1744400,60.00
4617,-0.1744800,20.00
4618,-0.1745200,40.00
4619,-0.1745600,20.00
4620,-0.1746000,40.00
4621,-0.1746400,20.00
4622,-0.1746800,40.00
4623,-0.1747200,0.00
4624,-0.1747600,40.00
4625,-0.1748000,20.00
4626,-0.1748400,60.00
4627,-0.1748800,20.00
4628,-0.1749200,60.00
4629,-0.1749600,20.00
4630,-0.1750000,40.00
4631,-0.1750400,20.00
4632,-0.1750800,60.00
4633,-0.1751200,20.00
4634,-0.1751600,40.00
4635,-0.1752000,20.00
4636,-0.1752400,40.00
4637,-0.1752800,0.00
4638,-0.1753200,40.00
4639,-0.1753600,20.00
4640,-0.1754000,40.00
4641,-0.1754400,0.00
4642,-0.1754800,40.00
4643,-0.1755200,20.00
4644,-0.1755600,60.00
4645,-0.1756000,20.00
4646,-0.1756400,40.00
4647,-0.1756800,20.00
4648,-0.1757200,60.00
4649,-0.1757600,40.00
4650,-0.1758000,40.00
4651,-0.1758400,20.00
4652,-0.1758800,40.00
4653,-0.1759200,0.00
4654,-0.1759600,40.00
4655,-0.1760000,0.00
4656,-0.1760400,40.00
4657,-0.1760800,20.00
4658,-0.1761200,40.00
4659,-0.1761600,20.00
4660,-0.1762000,60.00
4661,-0.1762400,20.00
4662,-0.1762800,60.00
4663,-0.1763200,20.00
4664,-0.1763600,40.00
4665,-0.1764000,40.00
4666,-0.1764400,40.00
4667,-0.1764800,40.00
4668,-0.1765200,40.00
4669,-0.1765600,20.00
4670,-0.1766000,40.00
4671,-0.1766400,0.00
4672,-0.1766800,40.00
4673,-0.1767200,20.00
4674,-0.1767600,40.00
4675,-0.1768000,20.00
4676,-0.1768400,40.00
4677,-0.1768800,20.00
4678,-0.1769200,40.00
4679,-0.1769600,20.00
4680,-0.1770000,40.00
4681,-0.1770400,40.00
4682,-0.1770800,40.00
4683,-0.1771200,40.00
4684,-0.1771600,60.00
4685,-0.1772000,40.00
4686,-0.1772400,40.00
4687,-0.1772800,20.00
4688,-0.1773200,40.00
4689,-0.1773600,20.00
4690,-0.1774000,40.00
4691,-0.1774400,0.00
4692,-0.1774800,40.00
4693,-0.1775200,20.00
4694,-0.1775600,40.00
4695,-0.1776000,20.00
4696,-0.1776400,40.00
4697,-0.1776800,20.00
4698,-0.1777200,40.00
4699,-0.1777600,40.00
4700,-0.1778000,40.00
4701,-0.1778400,20.00
4702,-0.1778800,60.00
4703,-0.1779200,20.00
4704,-0.1779600,60.00
4705,-0.1780000,20.00
4706,-0.1780400,40.00
4707,-0.1780800,0.00
4708,-0.1781200,40.00
4709,-0.1781600,0.00
4710,-0.1782000,40.00
4711,-0.1782400,20.00
4712,-0.1782800,40.00
4713,-0.1783200,20.00
4714,-0.1783600,40.00
4715,-0.1784000,40.00
4716,-0.1784400,40.00
4717,-0.1784800,20.00
4718,-0.1785200,60.00
4719,-0.1785600,40.00
4720,-0.1786000,40.00
4721,-0.1786400,20.00
4722,-0.1786800,40.00
4723,-0.1787200,0.00
4724,-0.1787600,40.00
4725,-0.1788000,0.00
4726,-0.1788400,40.00
4727,-0.1788800,20.00
4728,-0.1789200,40.00
4729,-0.1789600,20.00
4730,-0.1790000,40.00
4731,-0.1790400,20.00
4732,-0.1790800,40.00
4733,-0.1791200,20.00
4734,-0.1791600,40.00
4735,-0.1792000,40.00
4736,-0.1792400,60.00
4737,-0.1792800,40.00
4738,-0.1793200,40.00
4739,-0.1793600,0.00
4740,-0.1794000,40.00
4741,-0.1794400,20.00
4742,-0.1794800,40.00
4743,-0.1795200,20.00
4744,-0.1795600,40.00
4745,-0.1796000,20.00
4746,-0.1796400,40.00
4747,-0.1796800,20.00
4748,-0.1797200,60.00
4749,-0.1797600,20.00
4750,-0.1798000,40.00
4751,-0.1798400,20.00
4752,-0.1798800,40.00
4753,-0.1799200,20.00
4754,-0.1799600,40.00
4755,-0.1800000,20.00
4756,-0.1800400,40.00
4757,-0.1800800,20.00
4758,-0.1801200,40.00
4759,-0.1801600,0.00
4760,-0.1802000,40.00
4761,-0.1802400,0.00
4762,-0.1802800,40.00
4763,-0.1803200,20.00
4764,-0.1803600,40.00
4765,-0.1804000,20.00
4766,-0.1804400,40.00
4767,-0.1804800,20.00
4768,-0.1805200,60.00
4769,-0.1805600,40.00
4770,-0.1806000,60.00
4771,-0.1806400,20.00
4772,-0.1806800,60.00
4773,-0.1807200,20.00
4774,-0.1807600,40.00
4775,-0.1808000,20.00
4776,-0.1808400,40.00
4777,-0.1808800,0.00
4778,-0.1809200,40.00
4779,-0.1809600,0.00
4780,-0.1810000,40.00
4781,-0.1810400,20.00
4782,-0.1810800,40.00
4783,-0.1811200,20.00
4784,-0.1811600,40.00
4785,-0.1812000,20.00
4786,-0.1812400,40.00
4787,-0.1812800,20.00
4788,-0.1813200,40.00
4789,-0.1813600,40.00
4790,-0.1814000,40.00
4791,-0.1814400,0.00
4792,-0.1814800,40.00
4793,-0.1815200,0.00
4794,-0.1815600,40.00
4795,-0.1816000,0.00
4796,-0.1816400,40.00
4797,-0.1816800,0.00
4798,-0.1817200,40.00
4799,-0.1817600,20.00
4800,-0.1818000,40.00
4801,-0.1818400,20.00
4802,-0.1818800,40.00
4803,-0.1819200,20.00
4804,-0.1819600,60.00
4805,-0.1820000,40.00
4806,-0.1820400,40.00
4807,-0.1820800,20.00
4808,-0.1821200,40.00
4809,-0.1821600,20.00
4810,-0.1822000,40.00
4811,-0.1822400,0.00
4812,-0.1822800,40.00
4813,-0.1823200,20.00
4814,-0.1823600,40.00
4815,-0.1824000,20.00
4816,-0.1824400,40.00
4817,-0.1824800,20.00
4818,-0.1825200,40.00
4819,-0.1825600,20.00
4820,-0.1826000,60.00
4821,-0.1826400,20.00
4822,-0.1826800,40.00
4823,-0.1827200,40.00
4824,-0.1827600,60.00
4825,-0.1828000,20.00
4826,-0.1828400,40.00
4827,-0.1828800,20.00
4828,-0.1829200,40.00
4829,-0.1829600,0.00
4830,-0.1830000,40.00
4831,-0.1830400,0.00
4832,-0.1830800,40.00
4833,-0.1831200,20.00
4834,-0.1831600,40.00
4835,-0.1832000,20.00
4836,-0.1832400,40.00
4837,-0.1832800,20.00
4838,-0.1833200,60.00
4839,-0.1833600,40.00
4840,-0.1834000,60.00
4841,-0.1834400,20.00
4842,-0.1834800,40.00
4843,-0.1835200,20.00
4844,-0.1835600,40.00
4845,-0.1836000,0.00
4846,-0.1836400,40.00
4847,-0.1836800,20.00
4848,-0.1837200,40.00
4849,-0.1837600,20.00
4850,-0.1838000,40.00
4851,-0.1838400,20.00
4852,-0.1838800,40.00
4853,-0.1839200,40.00
4854,-0.1839600,60.00
4855,-0.1840000,20.00
4856,-0.1840400,60.00
4857,-0.1840800,20.00
4858,-0.1841200,60.00
4859,-0.1841600,40.00
4860,-0.1842000,60.00
4861,-0.1842400,20.00
4862,-0.1842800,20.00
4863,-0.1843200,0.00
4864,-0.1843600,40.00
4865,-0.1844000,0.00
4866,-0.1844400,40.00
4867,-0.1844800,0.00
4868,-0.1845200,40.00
4869,-0.1845600,20.00
4870,-0.1846000,40.00
4871,-0.1846400,20.00
4872,-0.1846800,60.00
4873,-0.1847200,40.00
4874,-0.1847600,40.00
4875,-0.1848000,40.00
4876,-0.1848400,60.00
4877,-0.1848800,20.00
4878,-0.1849200,40.00
4879,-0.1849600,0.00
4880,-0.1850000,40.00
4881,-0.1850400,0.00
4882,-0.1850800,40.00
4883,-0.1851200,20.00
4884,-0.1851600,40.00
4885,-0.1852000,20.00
4886,-0.1852400,40.00
4887,-0.1852800,20.00
4888,-0.1853200,40.00
4889,-0.1853600,20.00
4890,-0.1854000,40.00
4891,-0.1854400,20.00
4892,-0.1854800,40.00
4893,-0.1855200,20.00
4894,-0.1855600,40.00
4895,-0.1856000,0.00
4896,-0.1856400,60.00
4897,-0.1856800,20.00
4898,-0.1857200,40.00
4899,-0.1857600,0.00
4900,-0.1858000,40.00
4901,-0.1858400,0.00
4902,-0.1858800,40.00
4903,-0.1859200,0.00
4904,-0.1859600,40.00
4905,-0.1860000,20.00
4906,-0.1860400,60.00
4907,-0.1860800,20.00
4908,-0.1861200,40.00
4909,-0.1861600,20.00
4910,-0.1862000,60.00
4911,-0.1862400,0.00
4912,-0.1862800,60.00
4913,-0.1863200,20.00
4914,-0.1863600,40.00
4915,-0.1864000,20.00
4916,-0.1864400,40.00
4917,-0.1864800,0.00
4918,-0.1865200,40.00
4919,-0.1865600,20.00
4920,-0.1866000,60.00
4921,-0.1866400,20.00
4922,-0.1866800,40.00
4923,-0.1867200,20.00
4924,-0.1867600,40.00
4925,-0.1868000,20.00
4926,-0.1868400,40.00
4927,-0.1868800,40.00
4928,-0.1869200,40.00
4929,-0.1869600,20.00
4930,-0.1870000,40.00
4931,-0.1870400,0.00
4932,-0.1870800,40.00
4933,-0.1871200,0.00
4934,-0.1871600,40.00
4935,-0.1872000,20.00
4936,-0.1872400,40.00
4937,-0.1872800,20.00
4938,-0.1873200,40.00
4939,-0.1873600,20.00
4940,-0.1874000,40.00
4941,-0.1874400,20.00
4942,-0.1874800,60.00
4943,-0.1875200,20.00
4944,-0.1875600,60.00
4945,-0.1876000,20.00
4946,-0.1876400,60.00
4947,-0.1876800,20.00
4948,-0.1877200,40.00
4949,-0.1877600,20.00
4950,-0.1878000,40.00
4951,-0.1878400,0.00
4952,-0.1878800,40.00
4953,-0.1879200,20.00
4954,-0.1879600,40.00
4955,-0.1880000,20.00
4956,-0.1880400,60.00
4957,-0.1880800,20.00
4958,-0.1881200,40.00
4959,-0.1881600,20.00
4960,-0.1882000,60.00
4961,-0.1882400,20.00
4962,-0.1882800,40.00
4963,-0.1883200,20.00
4964,-0.1883600,40.00
4965,-0.1884000,0.00
4966,-0.1884400,40.00
4967,-0.1884800,0.00
4968,-0.1885200,40.00
4969,-0.1885600,0.00
4970,-0.1886000,40.00
4971,-0.1886400,20.00
4972,-0.1886800,60.00
4973,-0.1887200,20.00
4974,-0.1887600,40.00
4975,-0.1888000,20.00
4976,-0.1888400,40.00
4977,-0.1888800,20.00
4978,-0.1889200,60.00
4979,-0.1889600,20.00
4980,-0.1890000,40.00
4981,-0.1890400,20.00
4982,-0.1890800,40.00
4983,-0.1891200,0.00
4984,-0.1891600,40.00
4985,-0.1892000,20.00
4986,-0.1892400,40.00
4987,-0.1892800,0.00
4988,-0.1893200,40.00
4989,-0.1893600,20.00
4990,-0.1894000,40.00
4991,-0.1894400,0.00
4992,-0.1894800,40.00
4993,-0.1895200,20.00
4994,-0.1895600,60.00
4995,-0.1896000,40.00
4996,-0.1896400,60.00
4997,-0.1896800,20.00
4998,-0.1897200,40.00
4999,-0.1897600,20.00
