#,Time(ms),CH1(mV)
0,0.0400000,0.00
1,0.0399200,80.00
2,0.0398400,0.00
3,0.0397600,80.00
4,0.0396800,0.00
5,0.0396000,80.00
6,0.0395200,0.00
7,0.0394400,80.00
8,0.0393600,0.00
9,0.0392800,80.00
10,0.0392000,0.00
11,0.0391200,80.00
12,0.0390400,0.00
13,0.0389600,80.00
14,0.0388800,0.00
15,0.0388000,80.00
16,0.0387200,0.00
17,0.0386400,40.00
18,0.0385600,0.00
19,0.0384800,80.00
20,0.0384000,0.00
21,0.0383200,80.00
22,0.0382400,0.00
23,0.0381600,80.00
24,0.0380800,0.00
25,0.0380000,80.00
26,0.0379200,0.00
27,0.0378400,40.00
28,0.0377600,0.00
29,0.0376800,80.00
30,0.0376000,0.00
31,0.0375200,80.00
32,0.0374400,0.00
33,0.0373600,80.00
34,0.0372800,0.00
35,0.0372000,80.00
36,0.0371200,0.00
37,0.0370400,80.00
38,0.0369600,40.00
39,0.0368800,80.00
40,0.0368000,0.00
41,0.0367200,80.00
42,0.0366400,0.00
43,0.0365600,80.00
44,0.0364800,0.00
45,0.0364000,40.00
46,0.0363200,0.00
47,0.0362400,80.00
48,0.0361600,0.00
49,0.0360800,80.00
50,0.0360000,0.00
51,0.0359200,40.00
52,0.0358400,0.00
53,0.0357600,80.00
54,0.0356800,0.00
55,0.0356000,80.00
56,0.0355200,0.00
57,0.0354400,80.00
58,0.0353600,0.00
59,0.0352800,80.00
60,0.0352000,0.00
61,0.0351200,80.00
62,0.0350400,0.00
63,0.0349600,80.00
64,0.0348800,0.00
65,0.0348000,80.00
66,0.0347200,0.00
67,0.0346400,80.00
68,0.0345600,0.00
69,0.0344800,40.00
70,0.0344000,0.00
71,0.0343200,80.00
72,0.0342400,0.00
73,0.0341600,80.00
74,0.0340800,0.00
75,0.0340000,80.00
76,0.0339200,0.00
77,0.0338400,80.00
78,0.0337600,0.00
79,0.0336800,80.00
80,0.0336000,0.00
81,0.0335200,80.00
82,0.0334400,0.00
83,0.0333600,80.00
84,0.0332800,0.00
85,0.0332000,80.00
86,0.0331200,0.00
87,0.0330400,40.00
88,0.0329600,0.00
89,0.0328800,80.00
90,0.0328000,0.00
91,0.0327200,80.00
92,0.0326400,0.00
93,0.0325600,80.00
94,0.0324800,0.00
95,0.0324000,40.00
96,0.0323200,0.00
97,0.0322400,80.00
98,0.0321600,0.00
99,0.0320800,80.00
100,0.0320000,0.00
101,0.0319200,80.00
102,0.0318400,0.00
103,0.0317600,80.00
104,0.0316800,0.00
105,0.0316000,80.00
106,0.0315200,0.00
107,0.0314400,80.00
108,0.0313600,0.00
109,0.0312800,80.00
110,0.0312000,0.00
111,0.0311200,40.00
112,0.0310400,0.00
113,0.0309600,40.00
114,0.0308800,0.00
115,0.0308000,80.00
116,0.0307200,0.00
117,0.0306400,80.00
118,0.0305600,0.00
119,0.0304800,80.00
120,0.0304000,0.00
121,0.0303200,80.00
122,0.0302400,0.00
123,0.0301600,80.00
124,0.0300800,0.00
125,0.0300000,80.00
126,0.0299200,0.00
127,0.0298400,80.00
128,0.0297600,0.00
129,0.0296800,80.00
130,0.0296000,0.00
131,0.0295200,80.00
132,0.0294400,0.00
133,0.0293600,80.00
134,0.0292800,0.00
135,0.0292000,80.00
136,0.0291200,0.00
137,0.0290400,80.00
138,0.0289600,0.00
139,0.0288800,80.00
140,0.0288000,0.00
141,0.0287200,80.00
142,0.0286400,0.00
143,0.0285600,80.00
144,0.0284800,0.00
145,0.0284000,80.00
146,0.0283200,0.00
147,0.0282400,40.00
148,0.0281600,0.00
149,0.0280800,80.00
150,0.0280000,0.00
151,0.0279200,80.00
152,0.0278400,0.00
153,0.0277600,80.00
154,0.0276800,0.00
155,0.0276000,80.00
156,0.0275200,0.00
157,0.0274400,80.00
158,0.0273600,0.00
159,0.0272800,80.00
160,0.0272000,0.00
161,0.0271200,80.00
162,0.0270400,0.00
163,0.0269600,80.00
164,0.0268800,0.00
165,0.0268000,80.00
166,0.0267200,0.00
167,0.0266400,80.00
168,0.0265600,0.00
169,0.0264800,120.00
170,0.0264000,0.00
171,0.0263200,80.00
172,0.0262400,0.00
173,0.0261600,40.00
174,0.0260800,0.00
175,0.0260000,80.00
176,0.0259200,0.00
177,0.0258400,80.00
178,0.0257600,0.00
179,0.0256800,80.00
180,0.0256000,0.00
181,0.0255200,80.00
182,0.0254400,0.00
183,0.0253600,80.00
184,0.0252800,0.00
185,0.0252000,120.00
186,0.0251200,0.00
187,0.0250400,80.00
188,0.0249600,0.00
189,0.0248800,80.00
190,0.0248000,0.00
191,0.0247200,80.00
192,0.0246400,0.00
193,0.0245600,80.00
194,0.0244800,0.00
195,0.0244000,80.00
196,0.0243200,0.00
197,0.0242400,80.00
198,0.0241600,0.00
199,0.0240800,80.00
200,0.0240000,0.00
201,0.0239200,80.00
202,0.0238400,0.00
203,0.0237600,80.00
204,0.0236800,0.00
205,0.0236000,80.00
206,0.0235200,0.00
207,0.0234400,40.00
208,0.0233600,0.00
209,0.0232800,80.00
210,0.0232000,0.00
211,0.0231200,80.00
212,0.0230400,0.00
213,0.0229600,80.00
214,0.0228800,0.00
215,0.0228000,80.00
216,0.0227200,0.00
217,0.0226400,40.00
218,0.0225600,0.00
219,0.0224800,80.00
220,0.0224000,0.00
221,0.0223200,80.00
222,0.0222400,0.00
223,0.0221600,80.00
224,0.0220800,0.00
225,0.0220000,40.00
226,0.0219200,0.00
227,0.0218400,80.00
228,0.0217600,0.00
229,0.0216800,80.00
230,0.0216000,0.00
231,0.0215200,80.00
232,0.0214400,0.00
233,0.0213600,80.00
234,0.0212800,0.00
235,0.0212000,80.00
236,0.0211200,0.00
237,0.0210400,80.00
238,0.0209600,0.00
239,0.0208800,80.00
240,0.0208000,0.00
241,0.0207200,80.00
242,0.0206400,0.00
243,0.0205600,40.00
244,0.0204800,0.00
245,0.0204000,80.00
246,0.0203200,0.00
247,0.0202400,80.00
248,0.0201600,0.00
249,0.0200800,80.00
250,0.0200000,0.00
251,0.0199200,40.00
252,0.0198400,0.00
253,0.0197600,80.00
254,0.0196800,0.00
255,0.0196000,80.00
256,0.0195200,0.00
257,0.0194400,80.00
258,0.0193600,0.00
259,0.0192800,40.00
260,0.0192000,0.00
261,0.0191200,80.00
262,0.0190400,0.00
263,0.0189600,80.00
264,0.0188800,0.00
265,0.0188000,80.00
266,0.0187200,0.00
267,0.0186400,80.00
268,0.0185600,0.00
269,0.0184800,80.00
270,0.0184000,0.00
271,0.0183200,80.00
272,0.0182400,0.00
273,0.0181600,80.00
274,0.0180800,0.00
275,0.0180000,40.00
276,0.0179200,0.00
277,0.0178400,40.00
278,0.0177600,0.00
279,0.0176800,80.00
280,0.0176000,40.00
281,0.0175200,80.00
282,0.0174400,0.00
283,0.0173600,80.00
284,0.0172800,0.00
285,0.0172000,80.00
286,0.0171200,0.00
287,0.0170400,80.00
288,0.0169600,0.00
289,0.0168800,80.00
290,0.0168000,0.00
291,0.0167200,80.00
292,0.0166400,0.00
293,0.0165600,80.00
294,0.0164800,0.00
295,0.0164000,80.00
296,0.0163200,0.00
297,0.0162400,80.00
298,0.0161600,0.00
299,0.0160800,80.00
300,0.0160000,0.00
301,0.0159200,80.00
302,0.0158400,0.00
303,0.0157600,40.00
304,0.0156800,0.00
305,0.0156000,80.00
306,0.0155200,0.00
307,0.0154400,80.00
308,0.0153600,0.00
309,0.0152800,80.00
310,0.0152000,0.00
311,0.0151200,80.00
312,0.0150400,0.00
313,0.0149600,80.00
314,0.0148800,40.00
315,0.0148000,80.00
316,0.0147200,40.00
317,0.0146400,80.00
318,0.0145600,0.00
319,0.0144800,80.00
320,0.0144000,0.00
321,0.0143200,80.00
322,0.0142400,0.00
323,0.0141600,80.00
324,0.0140800,0.00
325,0.0140000,80.00
326,0.0139200,0.00
327,0.0138400,80.00
328,0.0137600,0.00
329,0.0136800,40.00
330,0.0136000,0.00
331,0.0135200,80.00
332,0.0134400,40.00
333,0.0133600,80.00
334,0.0132800,0.00
335,0.0132000,80.00
336,0.0131200,0.00
337,0.0130400,80.00
338,0.0129600,0.00
339,0.0128800,80.00
340,0.0128000,0.00
341,0.0127200,80.00
342,0.0126400,0.00
343,0.0125600,80.00
344,0.0124800,0.00
345,0.0124000,40.00
346,0.0123200,0.00
347,0.0122400,80.00
348,0.0121600,0.00
349,0.0120800,80.00
350,0.0120000,40.00
351,0.0119200,80.00
352,0.0118400,40.00
353,0.0117600,80.00
354,0.0116800,0.00
355,0.0116000,80.00
356,0.0115200,0.00
357,0.0114400,80.00
358,0.0113600,0.00
359,0.0112800,80.00
360,0.0112000,0.00
361,0.0111200,80.00
362,0.0110400,0.00
363,0.0109600,80.00
364,0.0108800,0.00
365,0.0108000,80.00
366,0.0107200,40.00
367,0.0106400,80.00
368,0.0105600,40.00
369,0.0104800,80.00
370,0.0104000,0.00
371,0.0103200,80.00
372,0.0102400,0.00
373,0.0101600,80.00
374,0.0100800,40.00
375,0.0100000,80.00
376,0.0099200,40.00
377,0.0098400,80.00
378,0.0097600,40.00
379,0.0096800,120.00
380,0.0096000,0.00
381,0.0095200,80.00
382,0.0094400,40.00
383,0.0093600,80.00
384,0.0092800,40.00
385,0.0092000,120.00
386,0.0091200,40.00
387,0.0090400,80.00
388,0.0089600,0.00
389,0.0088800,80.00
390,0.0088000,40.00
391,0.0087200,120.00
392,0.0086400,40.00
393,0.0085600,80.00
394,0.0084800,40.00
395,0.0084000,120.00
396,0.0083200,40.00
397,0.0082400,80.00
398,0.0081600,40.00
399,0.0080800,120.00
400,0.0080000,40.00
401,0.0079200,120.00
402,0.0078400,80.00
403,0.0077600,120.00
404,0.0076800,40.00
405,0.0076000,120.00
406,0.0075200,40.00
407,0.0074400,120.00
408,0.0073600,80.00
409,0.0072800,120.00
410,0.0072000,80.00
411,0.0071200,120.00
412,0.0070400,80.00
413,0.0069600,120.00
414,0.0068800,80.00
415,0.0068000,120.00
416,0.0067200,80.00
417,0.0066400,160.00
418,0.0065600,80.00
419,0.0064800,160.00
420,0.0064000,120.00
421,0.0063200,160.00
422,0.0062400,120.00
423,0.0061600,160.00
424,0.0060800,120.00
425,0.0060000,160.00
426,0.0059200,120.00
427,0.0058400,160.00
428,0.0057600,120.00
429,0.0056800,160.00
430,0.0056000,120.00
431,0.0055200,160.00
432,0.0054400,120.00
433,0.0053600,160.00
434,0.0052800,120.00
435,0.0052000,160.00
436,0.0051200,160.00
437,0.0050400,200.00
438,0.0049600,160.00
439,0.0048800,200.00
440,0.0048000,160.00
441,0.0047200,160.00
442,0.0046400,120.00
443,0.0045600,200.00
444,0.0044800,160.00
445,0.0044000,240.00
446,0.0043200,160.00
447,0.0042400,240.00
448,0.0041600,160.00
449,0.0040800,240.00
450,0.0040000,200.00
451,0.0039200,240.00
452,0.0038400,200.00
453,0.0037600,240.00
454,0.0036800,200.00
455,0.0036000,280.00
456,0.0035200,200.00
457,0.0034400,240.00
458,0.0033600,200.00
459,0.0032800,240.00
460,0.0032000,240.00
461,0.0031200,280.00
462,0.0030400,240.00
463,0.0029600,280.00
464,0.0028800,240.00
465,0.0028000,320.00
466,0.0027200,240.00
467,0.0026400,280.00
468,0.0025600,240.00
469,0.0024800,320.00
470,0.0024000,280.00
471,0.0023200,320.00
472,0.0022400,280.00
473,0.0021600,320.00
474,0.0020800,280.00
475,0.0020000,320.00
476,0.0019200,280.00
477,0.0018400,320.00
478,0.0017600,320.00
479,0.0016800,360.00
480,0.0016000,320.00
481,0.0015200,360.00
482,0.0014400,320.00
483,0.0013600,360.00
484,0.0012800,320.00
485,0.0012000,360.00
486,0.0011200,320.00
487,0.0010400,400.00
488,0.0009600,360.00
489,0.0008800,440.00
490,0.0008000,360.00
491,0.0007200,440.00
492,0.0006400,360.00
493,0.0005600,440.00
494,0.0004800,360.00
495,0.0004000,440.00
496,0.0003200,400.00
497,0.0002400,480.00
498,0.0001600,440.00
499,0.0000800,480.00
500,0.0000000,440.00
501,-0.0000800,480.00
502,-0.0001600,440.00
503,-0.0002400,480.00
504,-0.0003200,440.00
505,-0.0004000,480.00
506,-0.0004800,480.00
507,-0.0005600,520.00
508,-0.0006400,480.00
509,-0.0007200,520.00
510,-0.0008000,440.00
511,-0.0008800,560.00
512,-0.0009600,480.00
513,-0.0010400,560.00
514,-0.0011200,520.00
515,-0.0012000,600.00
516,-0.0012800,520.00
517,-0.0013600,600.00
518,-0.0014400,520.00
519,-0.0015200,560.00
520,-0.0016000,560.00
521,-0.0016800,600.00
522,-0.0017600,560.00
523,-0.0018400,640.00
524,-0.0019200,600.00
525,-0.0020000,640.00
526,-0.0020800,600.00
527,-0.0021600,640.00
528,-0.0022400,600.00
529,-0.0023200,640.00
530,-0.0024000,640.00
531,-0.0024800,680.00
532,-0.0025600,640.00
533,-0.0026400,680.00
534,-0.0027200,640.00
535,-0.0028000,720.00
536,-0.0028800,640.00
537,-0.0029600,680.00
538,-0.0030400,680.00
539,-0.0031200,760.00
540,-0.0032000,720.00
541,-0.0032800,760.00
542,-0.0033600,720.00
543,-0.0034400,760.00
544,-0.0035200,720.00
545,-0.0036000,760.00
546,-0.0036800,720.00
547,-0.0037600,800.00
548,-0.0038400,760.00
549,-0.0039200,800.00
550,-0.0040000,760.00
551,-0.0040800,840.00
552,-0.0041600,760.00
553,-0.0042400,840.00
554,-0.0043200,800.00
555,-0.0044000,880.00
556,-0.0044800,800.00
557,-0.0045600,880.00
558,-0.0046400,840.00
559,-0.0047200,920.00
560,-0.0048000,840.00
561,-0.0048800,920.00
562,-0.0049600,880.00
563,-0.0050400,960.00
564,-0.0051200,880.00
565,-0.0052000,960.00
566,-0.0052800,920.00
567,-0.0053600,960.00
568,-0.0054400,960.00
569,-0.0055200,960.00
570,-0.0056000,960.00
571,-0.0056800,1000.00
572,-0.0057600,960.00
573,-0.0058400,1040.00
574,-0.0059200,960.00
575,-0.0060000,1040.00
576,-0.0060800,1000.00
577,-0.0061600,1080.00
578,-0.0062400,1040.00
579,-0.0063200,1080.00
580,-0.0064000,1040.00
581,-0.0064800,1080.00
582,-0.0065600,1040.00
583,-0.0066400,1120.00
584,-0.0067200,1080.00
585,-0.0068000,1120.00
586,-0.0068800,1080.00
587,-0.0069600,1160.00
588,-0.0070400,1080.00
589,-0.0071200,1120.00
590,-0.0072000,1120.00
591,-0.0072800,1200.00
592,-0.0073600,1160.00
593,-0.0074400,1200.00
594,-0.0075200,1200.00
595,-0.0076000,1240.00
596,-0.0076800,1200.00
597,-0.0077600,1240.00
598,-0.0078400,1200.00
599,-0.0079200,1280.00
600,-0.0080000,1200.00
601,-0.0080800,1280.00
602,-0.0081600,1280.00
603,-0.0082400,1280.00
604,-0.0083200,1240.00
605,-0.0084000,1280.00
606,-0.0084800,1280.00
607,-0.0085600,1360.00
608,-0.0086400,1280.00
609,-0.0087200,1360.00
610,-0.0088000,1280.00
611,-0.0088800,1360.00
612,-0.0089600,1320.00
613,-0.0090400,1360.00
614,-0.0091200,1320.00
615,-0.0092000,1400.00
616,-0.0092800,1360.00
617,-0.0093600,1400.00
618,-0.0094400,1400.00
619,-0.0095200,1400.00
620,-0.0096000,1400.00
621,-0.0096800,1440.00
622,-0.0097600,1400.00
623,-0.0098400,1440.00
624,-0.0099200,1400.00
625,-0.0100000,1440.00
626,-0.0100800,1440.00
627,-0.0101600,1480.00
628,-0.0102400,1440.00
629,-0.0103200,1480.00
630,-0.0104000,1440.00
631,-0.0104800,1520.00
632,-0.0105600,1440.00
633,-0.0106400,1520.00
634,-0.0107200,1480.00
635,-0.0108000,1560.00
636,-0.0108800,1520.00
637,-0.0109600,1560.00
638,-0.0110400,1520.00
639,-0.0111200,1560.00
640,-0.0112000,1520.00
641,-0.0112800,1560.00
642,-0.0113600,1560.00
643,-0.0114400,1600.00
644,-0.0115200,1600.00
645,-0.0116000,1600.00
646,-0.0116800,1560.00
647,-0.0117600,1640.00
648,-0.0118400,1600.00
649,-0.0119200,1640.00
650,-0.0120000,1600.00
651,-0.0120800,1680.00
652,-0.0121600,1600.00
653,-0.0122400,1720.00
654,-0.0123200,1600.00
655,-0.0124000,1680.00
656,-0.0124800,1600.00
657,-0.0125600,1720.00
658,-0.0126400,1640.00
659,-0.0127200,1720.00
660,-0.0128000,1680.00
661,-0.0128800,1720.00
662,-0.0129600,1720.00
663,-0.0130400,1760.00
664,-0.0131200,1680.00
665,-0.0132000,1760.00
666,-0.0132800,1720.00
667,-0.0133600,1760.00
668,-0.0134400,1720.00
669,-0.0135200,1800.00
670,-0.0136000,1760.00
671,-0.0136800,1840.00
672,-0.0137600,1760.00
673,-0.0138400,1840.00
674,-0.0139200,1760.00
675,-0.0140000,1840.00
676,-0.0140800,1800.00
677,-0.0141600,1840.00
678,-0.0142400,1840.00
679,-0.0143200,1880.00
680,-0.0144000,1840.00
681,-0.0144800,1880.00
682,-0.0145600,1840.00
683,-0.0146400,1920.00
684,-0.0147200,1840.00
685,-0.0148000,1920.00
686,-0.0148800,1840.00
687,-0.0149600,1920.00
688,-0.0150400,1920.00
689,-0.0151200,1960.00
690,-0.0152000,1920.00
691,-0.0152800,1920.00
692,-0.0153600,1920.00
693,-0.0154400,1960.00
694,-0.0155200,1920.00
695,-0.0156000,2000.00
696,-0.0156800,1960.00
697,-0.0157600,2000.00
698,-0.0158400,1960.00
699,-0.0159200,2040.00
700,-0.0160000,2000.00
701,-0.0160800,2040.00
702,-0.0161600,2000.00
703,-0.0162400,2040.00
704,-0.0163200,2000.00
705,-0.0164000,2080.00
706,-0.0164800,2040.00
707,-0.0165600,2080.00
708,-0.0166400,2040.00
709,-0.0167200,2080.00
710,-0.0168000,2080.00
711,-0.0168800,2120.00
712,-0.0169600,2080.00
713,-0.0170400,2160.00
714,-0.0171200,2080.00
715,-0.0172000,2160.00
716,-0.0172800,2120.00
717,-0.0173600,2160.00
718,-0.0174400,2120.00
719,-0.0175200,2160.00
720,-0.0176000,2160.00
721,-0.0176800,2200.00
722,-0.0177600,2160.00
723,-0.0178400,2240.00
724,-0.0179200,2160.00
725,-0.0180000,2240.00
726,-0.0180800,2200.00
727,-0.0181600,2240.00
728,-0.0182400,2200.00
729,-0.0183200,2240.00
730,-0.0184000,2240.00
731,-0.0184800,2280.00
732,-0.0185600,2240.00
733,-0.0186400,2280.00
734,-0.0187200,2240.00
735,-0.0188000,2320.00
736,-0.0188800,2240.00
737,-0.0189600,2320.00
738,-0.0190400,2280.00
739,-0.0191200,2360.00
740,-0.0192000,2320.00
741,-0.0192800,2360.00
742,-0.0193600,2320.00
743,-0.0194400,2360.00
744,-0.0195200,2320.00
745,-0.0196000,2360.00
746,-0.0196800,2360.00
747,-0.0197600,2400.00
748,-0.0198400,2360.00
749,-0.0199200,2400.00
750,-0.0200000,2360.00
751,-0.0200800,2440.00
752,-0.0201600,2360.00
753,-0.0202400,2440.00
754,-0.0203200,2360.00
755,-0.0204000,2480.00
756,-0.0204800,2440.00
757,-0.0205600,2480.00
758,-0.0206400,2480.00
759,-0.0207200,2520.00
760,-0.0208000,2440.00
761,-0.0208800,2480.00
762,-0.0209600,2440.00
763,-0.0210400,2520.00
764,-0.0211200,2480.00
765,-0.0212000,2560.00
766,-0.0212800,2520.00
767,-0.0213600,2560.00
768,-0.0214400,2480.00
769,-0.0215200,2560.00
770,-0.0216000,2520.00
771,-0.0216800,2560.00
772,-0.0217600,2560.00
773,-0.0218400,2560.00
774,-0.0219200,2560.00
775,-0.0220000,2600.00
776,-0.0220800,2560.00
777,-0.0221600,2640.00
778,-0.0222400,2560.00
779,-0.0223200,2600.00
780,-0.0224000,2560.00
781,-0.0224800,2640.00
782,-0.0225600,2600.00
783,-0.0226400,2640.00
784,-0.0227200,2600.00
785,-0.0228000,2640.00
786,-0.0228800,2600.00
787,-0.0229600,2680.00
788,-0.0230400,2600.00
789,-0.0231200,2680.00
790,-0.0232000,2640.00
791,-0.0232800,2680.00
792,-0.0233600,2640.00
793,-0.0234400,2680.00
794,-0.0235200,2640.00
795,-0.0236000,2720.00
796,-0.0236800,2680.00
797,-0.0237600,2720.00
798,-0.0238400,2680.00
799,-0.0239200,2720.00
800,-0.0240000,2720.00
801,-0.0240800,2760.00
802,-0.0241600,2680.00
803,-0.0242400,2760.00
804,-0.0243200,2680.00
805,-0.0244000,2760.00
806,-0.0244800,2720.00
807,-0.0245600,2760.00
808,-0.0246400,2720.00
809,-0.0247200,2800.00
810,-0.0248000,2760.00
811,-0.0248800,2800.00
812,-0.0249600,2720.00
813,-0.0250400,2800.00
814,-0.0251200,2760.00
815,-0.0252000,2840.00
816,-0.0252800,2800.00
817,-0.0253600,2840.00
818,-0.0254400,2800.00
819,-0.0255200,2880.00
820,-0.0256000,2800.00
821,-0.0256800,2880.00
822,-0.0257600,2840.00
823,-0.0258400,2880.00
824,-0.0259200,2840.00
825,-0.0260000,2880.00
826,-0.0260800,2880.00
827,-0.0261600,2880.00
828,-0.0262400,2880.00
829,-0.0263200,2920.00
830,-0.0264000,2880.00
831,-0.0264800,2920.00
832,-0.0265600,2880.00
833,-0.0266400,2960.00
834,-0.0267200,2880.00
835,-0.0268000,3000.00
836,-0.0268800,2920.00
837,-0.0269600,3000.00
838,-0.0270400,2880.00
839,-0.0271200,2960.00
840,-0.0272000,2960.00
841,-0.0272800,3000.00
842,-0.0273600,2960.00
843,-0.0274400,3040.00
844,-0.0275200,3000.00
845,-0.0276000,3040.00
846,-0.0276800,3000.00
847,-0.0277600,3040.00
848,-0.0278400,3000.00
849,-0.0279200,3040.00
850,-0.0280000,3000.00
851,-0.0280800,3080.00
852,-0.0281600,3040.00
853,-0.0282400,3080.00
854,-0.0283200,3040.00
855,-0.0284000,3120.00
856,-0.0284800,3040.00
857,-0.0285600,3120.00
858,-0.0286400,3080.00
859,-0.0287200,3160.00
860,-0.0288000,3120.00
861,-0.0288800,3160.00
862,-0.0289600,3120.00
863,-0.0290400,3200.00
864,-0.0291200,3120.00
865,-0.0292000,3200.00
866,-0.0292800,3160.00
867,-0.0293600,3200.00
868,-0.0294400,3160.00
869,-0.0295200,3200.00
870,-0.0296000,3200.00
871,-0.0296800,3280.00
872,-0.0297600,3200.00
873,-0.0298400,3240.00
874,-0.0299200,3200.00
875,-0.0300000,3280.00
876,-0.0300800,3200.00
877,-0.0301600,3280.00
878,-0.0302400,3240.00
879,-0.0303200,3320.00
880,-0.0304000,3280.00
881,-0.0304800,3320.00
882,-0.0305600,3280.00
883,-0.0306400,3320.00
884,-0.0307200,3280.00
885,-0.0308000,3360.00
886,-0.0308800,3320.00
887,-0.0309600,3360.00
888,-0.0310400,3320.00
889,-0.0311200,3360.00
890,-0.0312000,3320.00
891,-0.0312800,3360.00
892,-0.0313600,3320.00
893,-0.0314400,3400.00
894,-0.0315200,3320.00
895,-0.0316000,3440.00
896,-0.0316800,3360.00
897,-0.0317600,3440.00
898,-0.0318400,3360.00
899,-0.0319200,3440.00
900,-0.0320000,3360.00
901,-0.0320800,3440.00
902,-0.0321600,3440.00
903,-0.0322400,3480.00
904,-0.0323200,3440.00
905,-0.0324000,3520.00
906,-0.0324800,3440.00
907,-0.0325600,3520.00
908,-0.0326400,3440.00
909,-0.0327200,3520.00
910,-0.0328000,3480.00
911,-0.0328800,3520.00
912,-0.0329600,3480.00
913,-0.0330400,3560.00
914,-0.0331200,3520.00
915,-0.0332000,3560.00
916,-0.0332800,3520.00
917,-0.0333600,3560.00
918,-0.0334400,3520.00
919,-0.0335200,3600.00
920,-0.0336000,3520.00
921,-0.0336800,3600.00
922,-0.0337600,3560.00
923,-0.0338400,3600.00
924,-0.0339200,3560.00
925,-0.0340000,3600.00
926,-0.0340800,3560.00
927,-0.0341600,3640.00
928,-0.0342400,3600.00
929,-0.0343200,3640.00
930,-0.0344000,3640.00
931,-0.0344800,3640.00
932,-0.0345600,3600.00
933,-0.0346400,3680.00
934,-0.0347200,3600.00
935,-0.0348000,3680.00
936,-0.0348800,3600.00
937,-0.0349600,3680.00
938,-0.0350400,3680.00
939,-0.0351200,3720.00
940,-0.0352000,3640.00
941,-0.0352800,3720.00
942,-0.0353600,3680.00
943,-0.0354400,3720.00
944,-0.0355200,3680.00
945,-0.0356000,3760.00
946,-0.0356800,3720.00
947,-0.0357600,3800.00
948,-0.0358400,3720.00
949,-0.0359200,3800.00
950,-0.0360000,3760.00
951,-0.0360800,3800.00
952,-0.0361600,3760.00
953,-0.0362400,3800.00
954,-0.0363200,3760.00
955,-0.0364000,3840.00
956,-0.0364800,3800.00
957,-0.0365600,3840.00
958,-0.0366400,3800.00
959,-0.0367200,3840.00
960,-0.0368000,3840.00
961,-0.0368800,3880.00
962,-0.0369600,3840.00
963,-0.0370400,3880.00
964,-0.0371200,3840.00
965,-0.0372000,3920.00
966,-0.0372800,3840.00
967,-0.0373600,3920.00
968,-0.0374400,3840.00
969,-0.0375200,3920.00
970,-0.0376000,3880.00
971,-0.0376800,3960.00
972,-0.0377600,3880.00
973,-0.0378400,3960.00
974,-0.0379200,3920.00
975,-0.0380000,3960.00
976,-0.0380800,3920.00
977,-0.0381600,3960.00
978,-0.0382400,3920.00
979,-0.0383200,3960.00
980,-0.0384000,3960.00
981,-0.0384800,4000.00
982,-0.0385600,3960.00
983,-0.0386400,4000.00
984,-0.0387200,3960.00
985,-0.0388000,4000.00
986,-0.0388800,3960.00
987,-0.0389600,4000.00
988,-0.0390400,3960.00
989,-0.0391200,4040.00
990,-0.0392000,4000.00
991,-0.0392800,4080.00
992,-0.0393600,4000.00
993,-0.0394400,4080.00
994,-0.0395200,4000.00
995,-0.0396000,4080.00
996,-0.0396800,4000.00
997,-0.0397600,4080.00
998,-0.0398400,4040.00
999,-0.0399200,4080.00
1000,-0.0400000,4040.00
1001,-0.0400800,4120.00
1002,-0.0401600,4040.00
1003,-0.0402400,4080.00
1004,-0.0403200,4080.00
1005,-0.0404000,4120.00
1006,-0.0404800,4080.00
1007,-0.0405600,4120.00
1008,-0.0406400,4080.00
1009,-0.0407200,4120.00
1010,-0.0408000,4080.00
1011,-0.0408800,4160.00
1012,-0.0409600,4080.00
1013,-0.0410400,4120.00
1014,-0.0411200,4080.00
1015,-0.0412000,4160.00
1016,-0.0412800,4120.00
1017,-0.0413600,4160.00
1018,-0.0414400,4080.00
1019,-0.0415200,4160.00
1020,-0.0416000,4080.00
1021,-0.0416800,4120.00
1022,-0.0417600,4080.00
1023,-0.0418400,4160.00
1024,-0.0419200,4120.00
1025,-0.0420000,4160.00
1026,-0.0420800,4120.00
1027,-0.0421600,4160.00
1028,-0.0422400,4120.00
1029,-0.0423200,4160.00
1030,-0.0424000,4120.00
1031,-0.0424800,4160.00
1032,-0.0425600,4120.00
1033,-0.0426400,4160.00
1034,-0.0427200,4120.00
1035,-0.0428000,4160.00
1036,-0.0428800,4120.00
1037,-0.0429600,4160.00
1038,-0.0430400,4160.00
1039,-0.0431200,4160.00
1040,-0.0432000,4160.00
1041,-0.0432800,4200.00
1042,-0.0433600,4160.00
1043,-0.0434400,4200.00
1044,-0.0435200,4160.00
1045,-0.0436000,4200.00
1046,-0.0436800,4160.00
1047,-0.0437600,4200.00
1048,-0.0438400,4160.00
1049,-0.0439200,4240.00
1050,-0.0440000,4160.00
1051,-0.0440800,4240.00
1052,-0.0441600,4160.00
1053,-0.0442400,4280.00
1054,-0.0443200,4160.00
1055,-0.0444000,4280.00
1056,-0.0444800,4200.00
1057,-0.0445600,4240.00
1058,-0.0446400,4240.00
1059,-0.0447200,4280.00
1060,-0.0448000,4240.00
1061,-0.0448800,4280.00
1062,-0.0449600,4240.00
1063,-0.0450400,4280.00
1064,-0.0451200,4280.00
1065,-0.0452000,4320.00
1066,-0.0452800,4280.00
1067,-0.0453600,4320.00
1068,-0.0454400,4280.00
1069,-0.0455200,4320.00
1070,-0.0456000,4280.00
1071,-0.0456800,4360.00
1072,-0.0457600,4320.00
1073,-0.0458400,4320.00
1074,-0.0459200,4320.00
1075,-0.0460000,4400.00
1076,-0.0460800,4320.00
1077,-0.0461600,4400.00
1078,-0.0462400,4360.00
1079,-0.0463200,4400.00
1080,-0.0464000,4360.00
1081,-0.0464800,4400.00
1082,-0.0465600,4360.00
1083,-0.0466400,4440.00
1084,-0.0467200,4400.00
1085,-0.0468000,4480.00
1086,-0.0468800,4400.00
1087,-0.0469600,4480.00
1088,-0.0470400,4400.00
1089,-0.0471200,4480.00
1090,-0.0472000,4440.00
1091,-0.0472800,4480.00
1092,-0.0473600,4440.00
1093,-0.0474400,4480.00
1094,-0.0475200,4480.00
1095,-0.0476000,4480.00
1096,-0.0476800,4480.00
1097,-0.0477600,4520.00
1098,-0.0478400,4480.00
1099,-0.0479200,4520.00
1100,-0.0480000,4480.00
1101,-0.0480800,4560.00
1102,-0.0481600,4480.00
1103,-0.0482400,4560.00
1104,-0.0483200,4480.00
1105,-0.0484000,4560.00
1106,-0.0484800,4480.00
1107,-0.0485600,4560.00
1108,-0.0486400,4480.00
1109,-0.0487200,4560.00
1110,-0.0488000,4520.00
1111,-0.0488800,4600.00
1112,-0.0489600,4520.00
1113,-0.0490400,4600.00
1114,-0.0491200,4520.00
1115,-0.0492000,4600.00
1116,-0.0492800,4560.00
1117,-0.0493600,4600.00
1118,-0.0494400,4560.00
1119,-0.0495200,4600.00
1120,-0.0496000,4560.00
1121,-0.0496800,4600.00
1122,-0.0497600,4560.00
1123,-0.0498400,4600.00
1124,-0.0499200,4560.00
1125,-0.0500000,4600.00
1126,-0.0500800,4560.00
1127,-0.0501600,4640.00
1128,-0.0502400,4560.00
1129,-0.0503200,4600.00
1130,-0.0504000,4600.00
1131,-0.0504800,4640.00
1132,-0.0505600,4600.00
1133,-0.0506400,4640.00
1134,-0.0507200,4600.00
1135,-0.0508000,4640.00
1136,-0.0508800,4600.00
1137,-0.0509600,4640.00
1138,-0.0510400,4600.00
1139,-0.0511200,4680.00
1140,-0.0512000,4600.00
1141,-0.0512800,4640.00
1142,-0.0513600,4600.00
1143,-0.0514400,4640.00
1144,-0.0515200,4600.00
1145,-0.0516000,4680.00
1146,-0.0516800,4640.00
1147,-0.0517600,4720.00
1148,-0.0518400,4640.00
1149,-0.0519200,4720.00
1150,-0.0520000,4640.00
1151,-0.0520800,4720.00
1152,-0.0521600,4640.00
1153,-0.0522400,4720.00
1154,-0.0523200,4720.00
1155,-0.0524000,4720.00
1156,-0.0524800,4720.00
1157,-0.0525600,4760.00
1158,-0.0526400,4680.00
1159,-0.0527200,4760.00
1160,-0.0528000,4720.00
1161,-0.0528800,4800.00
1162,-0.0529600,4720.00
1163,-0.0530400,4800.00
1164,-0.0531200,4760.00
1165,-0.0532000,4800.00
1166,-0.0532800,4760.00
1167,-0.0533600,4800.00
1168,-0.0534400,4760.00
1169,-0.0535200,4800.00
1170,-0.0536000,4760.00
1171,-0.0536800,4800.00
1172,-0.0537600,4800.00
1173,-0.0538400,4840.00
1174,-0.0539200,4800.00
1175,-0.0540000,4840.00
1176,-0.0540800,4800.00
1177,-0.0541600,4840.00
1178,-0.0542400,4800.00
1179,-0.0543200,4880.00
1180,-0.0544000,4840.00
1181,-0.0544800,4880.00
1182,-0.0545600,4880.00
1183,-0.0546400,4920.00
1184,-0.0547200,4880.00
1185,-0.0548000,4920.00
1186,-0.0548800,4840.00
1187,-0.0549600,4920.00
1188,-0.0550400,4880.00
1189,-0.0551200,4920.00
1190,-0.0552000,4880.00
1191,-0.0552800,4960.00
1192,-0.0553600,4880.00
1193,-0.0554400,4920.00
1194,-0.0555200,4880.00
1195,-0.0556000,4920.00
1196,-0.0556800,4920.00
1197,-0.0557600,4960.00
1198,-0.0558400,4920.00
1199,-0.0559200,4960.00
1200,-0.0560000,4920.00
1201,-0.0560800,4960.00
1202,-0.0561600,4920.00
1203,-0.0562400,4960.00
1204,-0.0563200,4920.00
1205,-0.0564000,4960.00
1206,-0.0564800,4920.00
1207,-0.0565600,5000.00
1208,-0.0566400,4920.00
1209,-0.0567200,5000.00
1210,-0.0568000,4920.00
1211,-0.0568800,4960.00
1212,-0.0569600,4920.00
1213,-0.0570400,5000.00
1214,-0.0571200,4920.00
1215,-0.0572000,5000.00
1216,-0.0572800,4960.00
1217,-0.0573600,5000.00
1218,-0.0574400,4920.00
1219,-0.0575200,5000.00
1220,-0.0576000,4920.00
1221,-0.0576800,4960.00
1222,-0.0577600,4960.00
1223,-0.0578400,5040.00
1224,-0.0579200,4960.00
1225,-0.0580000,5000.00
1226,-0.0580800,4960.00
1227,-0.0581600,5000.00
1228,-0.0582400,4960.00
1229,-0.0583200,5000.00
1230,-0.0584000,4960.00
1231,-0.0584800,5000.00
1232,-0.0585600,4960.00
1233,-0.0586400,5040.00
1234,-0.0587200,4960.00
1235,-0.0588000,5040.00
1236,-0.0588800,4960.00
1237,-0.0589600,5040.00
1238,-0.0590400,4960.00
1239,-0.0591200,5040.00
1240,-0.0592000,4960.00
1241,-0.0592800,5040.00
1242,-0.0593600,5000.00
1243,-0.0594400,5080.00
1244,-0.0595200,5000.00
1245,-0.0596000,5040.00
1246,-0.0596800,5000.00
1247,-0.0597600,5080.00
1248,-0.0598400,5000.00
1249,-0.0599200,5120.00
1250,-0.0600000,5040.00
1251,-0.0600800,5080.00
1252,-0.0601600,5040.00
1253,-0.0602400,5120.00
1254,-0.0603200,5040.00
1255,-0.0604000,5120.00
1256,-0.0604800,5080.00
1257,-0.0605600,5120.00
1258,-0.0606400,5080.00
1259,-0.0607200,5120.00
1260,-0.0608000,5080.00
1261,-0.0608800,5120.00
1262,-0.0609600,5080.00
1263,-0.0610400,5120.00
1264,-0.0611200,5120.00
1265,-0.0612000,5160.00
1266,-0.0612800,5120.00
1267,-0.0613600,5160.00
1268,-0.0614400,5120.00
1269,-0.0615200,5200.00
1270,-0.0616000,5120.00
1271,-0.0616800,5200.00
1272,-0.0617600,5120.00
1273,-0.0618400,5200.00
1274,-0.0619200,5160.00
1275,-0.0620000,5200.00
1276,-0.0620800,5200.00
1277,-0.0621600,5240.00
1278,-0.0622400,5160.00
1279,-0.0623200,5240.00
1280,-0.0624000,5160.00
1281,-0.0624800,5240.00
1282,-0.0625600,5200.00
1283,-0.0626400,5240.00
1284,-0.0627200,5200.00
1285,-0.0628000,5240.00
1286,-0.0628800,5200.00
1287,-0.0629600,5280.00
1288,-0.0630400,5200.00
1289,-0.0631200,5240.00
1290,-0.0632000,5200.00
1291,-0.0632800,5280.00
1292,-0.0633600,5240.00
1293,-0.0634400,5280.00
1294,-0.0635200,5240.00
1295,-0.0636000,5280.00
1296,-0.0636800,5200.00
1297,-0.0637600,5280.00
1298,-0.0638400,5240.00
1299,-0.0639200,5280.00
1300,-0.0640000,5240.00
1301,-0.0640800,5280.00
1302,-0.0641600,5280.00
1303,-0.0642400,5320.00
1304,-0.0643200,5240.00
1305,-0.0644000,5320.00
1306,-0.0644800,5240.00
1307,-0.0645600,5280.00
1308,-0.0646400,5240.00
1309,-0.0647200,5320.00
1310,-0.0648000,5240.00
1311,-0.0648800,5320.00
1312,-0.0649600,5280.00
1313,-0.0650400,5360.00
1314,-0.0651200,5280.00
1315,-0.0652000,5320.00
1316,-0.0652800,5280.00
1317,-0.0653600,5320.00
1318,-0.0654400,5280.00
1319,-0.0655200,5360.00
1320,-0.0656000,5280.00
1321,-0.0656800,5400.00
1322,-0.0657600,5280.00
1323,-0.0658400,5360.00
1324,-0.0659200,5280.00
1325,-0.0660000,5360.00
1326,-0.0660800,5280.00
1327,-0.0661600,5360.00
1328,-0.0662400,5320.00
1329,-0.0663200,5360.00
1330,-0.0664000,5320.00
1331,-0.0664800,5360.00
1332,-0.0665600,5320.00
1333,-0.0666400,5360.00
1334,-0.0667200,5360.00
1335,-0.0668000,5400.00
1336,-0.0668800,5360.00
1337,-0.0669600,5440.00
1338,-0.0670400,5360.00
1339,-0.0671200,5440.00
1340,-0.0672000,5360.00
1341,-0.0672800,5440.00
1342,-0.0673600,5400.00
1343,-0.0674400,5440.00
1344,-0.0675200,5400.00
1345,-0.0676000,5440.00
1346,-0.0676800,5440.00
1347,-0.0677600,5480.00
1348,-0.0678400,5440.00
1349,-0.0679200,5480.00
1350,-0.0680000,5440.00
1351,-0.0680800,5480.00
1352,-0.0681600,5440.00
1353,-0.0682400,5520.00
1354,-0.0683200,5480.00
1355,-0.0684000,5520.00
1356,-0.0684800,5440.00
1357,-0.0685600,5520.00
1358,-0.0686400,5480.00
1359,-0.0687200,5520.00
1360,-0.0688000,5480.00
1361,-0.0688800,5560.00
1362,-0.0689600,5480.00
1363,-0.0690400,5560.00
1364,-0.0691200,5520.00
1365,-0.0692000,5560.00
1366,-0.0692800,5480.00
1367,-0.0693600,5560.00
1368,-0.0694400,5520.00
1369,-0.0695200,5560.00
1370,-0.0696000,5520.00
1371,-0.0696800,5560.00
1372,-0.0697600,5520.00
1373,-0.0698400,5600.00
1374,-0.0699200,5520.00
1375,-0.0700000,5560.00
1376,-0.0700800,5520.00
1377,-0.0701600,5560.00
1378,-0.0702400,5520.00
1379,-0.0703200,5560.00
1380,-0.0704000,5520.00
1381,-0.0704800,5560.00
1382,-0.0705600,5520.00
1383,-0.0706400,5560.00
1384,-0.0707200,5520.00
1385,-0.0708000,5560.00
1386,-0.0708800,5520.00
1387,-0.0709600,5560.00
1388,-0.0710400,5520.00
1389,-0.0711200,5560.00
1390,-0.0712000,5520.00
1391,-0.0712800,5560.00
1392,-0.0713600,5480.00
1393,-0.0714400,5560.00
1394,-0.0715200,5520.00
1395,-0.0716000,5560.00
1396,-0.0716800,5520.00
1397,-0.0717600,5560.00
1398,-0.0718400,5520.00
1399,-0.0719200,5560.00
1400,-0.0720000,5520.00
1401,-0.0720800,5560.00
1402,-0.0721600,5480.00
1403,-0.0722400,5560.00
1404,-0.0723200,5520.00
1405,-0.0724000,5560.00
1406,-0.0724800,5520.00
1407,-0.0725600,5560.00
1408,-0.0726400,5520.00
1409,-0.0727200,5560.00
1410,-0.0728000,5520.00
1411,-0.0728800,5560.00
1412,-0.0729600,5520.00
1413,-0.0730400,5600.00
1414,-0.0731200,5560.00
1415,-0.0732000,5640.00
1416,-0.0732800,5560.00
1417,-0.0733600,5600.00
1418,-0.0734400,5560.00
1419,-0.0735200,5600.00
1420,-0.0736000,5560.00
1421,-0.0736800,5640.00
1422,-0.0737600,5600.00
1423,-0.0738400,5640.00
1424,-0.0739200,5600.00
1425,-0.0740000,5680.00
1426,-0.0740800,5600.00
1427,-0.0741600,5680.00
1428,-0.0742400,5600.00
1429,-0.0743200,5680.00
1430,-0.0744000,5640.00
1431,-0.0744800,5680.00
1432,-0.0745600,5640.00
1433,-0.0746400,5720.00
1434,-0.0747200,5680.00
1435,-0.0748000,5720.00
1436,-0.0748800,5640.00
1437,-0.0749600,5720.00
1438,-0.0750400,5680.00
1439,-0.0751200,5760.00
1440,-0.0752000,5720.00
1441,-0.0752800,5760.00
1442,-0.0753600,5720.00
1443,-0.0754400,5760.00
1444,-0.0755200,5720.00
1445,-0.0756000,5760.00
1446,-0.0756800,5720.00
1447,-0.0757600,5760.00
1448,-0.0758400,5720.00
1449,-0.0759200,5760.00
1450,-0.0760000,5760.00
1451,-0.0760800,5760.00
1452,-0.0761600,5760.00
1453,-0.0762400,5760.00
1454,-0.0763200,5760.00
1455,-0.0764000,5800.00
1456,-0.0764800,5760.00
1457,-0.0765600,5840.00
1458,-0.0766400,5760.00
1459,-0.0767200,5840.00
1460,-0.0768000,5760.00
1461,-0.0768800,5800.00
1462,-0.0769600,5760.00
1463,-0.0770400,5800.00
1464,-0.0771200,5760.00
1465,-0.0772000,5840.00
1466,-0.0772800,5800.00
1467,-0.0773600,5840.00
1468,-0.0774400,5760.00
1469,-0.0775200,5840.00
1470,-0.0776000,5760.00
1471,-0.0776800,5840.00
1472,-0.0777600,5800.00
1473,-0.0778400,5840.00
1474,-0.0779200,5800.00
1475,-0.0780000,5840.00
1476,-0.0780800,5800.00
1477,-0.0781600,5880.00
1478,-0.0782400,5800.00
1479,-0.0783200,5840.00
1480,-0.0784000,5800.00
1481,-0.0784800,5840.00
1482,-0.0785600,5840.00
1483,-0.0786400,5880.00
1484,-0.0787200,5840.00
1485,-0.0788000,5880.00
1486,-0.0788800,5840.00
1487,-0.0789600,5880.00
1488,-0.0790400,5840.00
1489,-0.0791200,5880.00
1490,-0.0792000,5840.00
1491,-0.0792800,5880.00
1492,-0.0793600,5840.00
1493,-0.0794400,5920.00
1494,-0.0795200,5880.00
1495,-0.0796000,5920.00
1496,-0.0796800,5880.00
1497,-0.0797600,5880.00
1498,-0.0798400,5880.00
1499,-0.0799200,5920.00
1500,-0.0800000,5880.00
1501,-0.0800800,5920.00
1502,-0.0801600,5920.00
1503,-0.0802400,5920.00
1504,-0.0803200,5880.00
1505,-0.0804000,5960.00
1506,-0.0804800,5920.00
1507,-0.0805600,5920.00
1508,-0.0806400,5920.00
1509,-0.0807200,5960.00
1510,-0.0808000,5920.00
1511,-0.0808800,5960.00
1512,-0.0809600,5920.00
1513,-0.0810400,6000.00
1514,-0.0811200,5920.00
1515,-0.0812000,5960.00
1516,-0.0812800,5920.00
1517,-0.0813600,6000.00
1518,-0.0814400,5920.00
1519,-0.0815200,6000.00
1520,-0.0816000,5920.00
1521,-0.0816800,6040.00
1522,-0.0817600,5920.00
1523,-0.0818400,6000.00
1524,-0.0819200,5920.00
1525,-0.0820000,6000.00
1526,-0.0820800,5960.00
1527,-0.0821600,6000.00
1528,-0.0822400,5960.00
1529,-0.0823200,6000.00
1530,-0.0824000,5920.00
1531,-0.0824800,6000.00
1532,-0.0825600,5960.00
1533,-0.0826400,6000.00
1534,-0.0827200,5960.00
1535,-0.0828000,6000.00
1536,-0.0828800,5960.00
1537,-0.0829600,6040.00
1538,-0.0830400,5960.00
1539,-0.0831200,6000.00
1540,-0.0832000,5960.00
1541,-0.0832800,6000.00
1542,-0.0833600,5960.00
1543,-0.0834400,6000.00
1544,-0.0835200,6000.00
1545,-0.0836000,6040.00
1546,-0.0836800,5960.00
1547,-0.0837600,6040.00
1548,-0.0838400,5960.00
1549,-0.0839200,6040.00
1550,-0.0840000,5960.00
1551,-0.0840800,6040.00
1552,-0.0841600,6000.00
1553,-0.0842400,6040.00
1554,-0.0843200,5960.00
1555,-0.0844000,6040.00
1556,-0.0844800,6000.00
1557,-0.0845600,6000.00
1558,-0.0846400,5960.00
1559,-0.0847200,6040.00
1560,-0.0848000,5960.00
1561,-0.0848800,6040.00
1562,-0.0849600,6000.00
1563,-0.0850400,6080.00
1564,-0.0851200,6000.00
1565,-0.0852000,6040.00
1566,-0.0852800,6000.00
1567,-0.0853600,6040.00
1568,-0.0854400,6000.00
1569,-0.0855200,6040.00
1570,-0.0856000,6000.00
1571,-0.0856800,6080.00
1572,-0.0857600,6000.00
1573,-0.0858400,6080.00
1574,-0.0859200,6000.00
1575,-0.0860000,6080.00
1576,-0.0860800,6000.00
1577,-0.0861600,6080.00
1578,-0.0862400,6040.00
1579,-0.0863200,6080.00
1580,-0.0864000,6040.00
1581,-0.0864800,6080.00
1582,-0.0865600,6040.00
1583,-0.0866400,6080.00
1584,-0.0867200,6040.00
1585,-0.0868000,6080.00
1586,-0.0868800,6040.00
1587,-0.0869600,6080.00
1588,-0.0870400,6080.00
1589,-0.0871200,6080.00
1590,-0.0872000,6040.00
1591,-0.0872800,6080.00
1592,-0.0873600,6080.00
1593,-0.0874400,6080.00
1594,-0.0875200,6080.00
1595,-0.0876000,6080.00
1596,-0.0876800,6080.00
1597,-0.0877600,6120.00
1598,-0.0878400,6080.00
1599,-0.0879200,6120.00
1600,-0.0880000,6080.00
1601,-0.0880800,6080.00
1602,-0.0881600,6080.00
1603,-0.0882400,6120.00
1604,-0.0883200,6080.00
1605,-0.0884000,6120.00
1606,-0.0884800,6080.00
1607,-0.0885600,6160.00
1608,-0.0886400,6080.00
1609,-0.0887200,6120.00
1610,-0.0888000,6080.00
1611,-0.0888800,6160.00
1612,-0.0889600,6080.00
1613,-0.0890400,6120.00
1614,-0.0891200,6080.00
1615,-0.0892000,6160.00
1616,-0.0892800,6080.00
1617,-0.0893600,6160.00
1618,-0.0894400,6080.00
1619,-0.0895200,6160.00
1620,-0.0896000,6080.00
1621,-0.0896800,6160.00
1622,-0.0897600,6080.00
1623,-0.0898400,6160.00
1624,-0.0899200,6080.00
1625,-0.0900000,6160.00
1626,-0.0900800,6080.00
1627,-0.0901600,6160.00
1628,-0.0902400,6120.00
1629,-0.0903200,6200.00
1630,-0.0904000,6120.00
1631,-0.0904800,6160.00
1632,-0.0905600,6120.00
1633,-0.0906400,6200.00
1634,-0.0907200,6120.00
1635,-0.0908000,6160.00
1636,-0.0908800,6120.00
1637,-0.0909600,6200.00
1638,-0.0910400,6160.00
1639,-0.0911200,6200.00
1640,-0.0912000,6160.00
1641,-0.0912800,6200.00
1642,-0.0913600,6120.00
1643,-0.0914400,6200.00
1644,-0.0915200,6120.00
1645,-0.0916000,6160.00
1646,-0.0916800,6160.00
1647,-0.0917600,6200.00
1648,-0.0918400,6160.00
1649,-0.0919200,6240.00
1650,-0.0920000,6160.00
1651,-0.0920800,6200.00
1652,-0.0921600,6160.00
1653,-0.0922400,6200.00
1654,-0.0923200,6160.00
1655,-0.0924000,6200.00
1656,-0.0924800,6160.00
1657,-0.0925600,6200.00
1658,-0.0926400,6160.00
1659,-0.0927200,6240.00
1660,-0.0928000,6160.00
1661,-0.0928800,6200.00
1662,-0.0929600,6160.00
1663,-0.0930400,6200.00
1664,-0.0931200,6160.00
1665,-0.0932000,6240.00
1666,-0.0932800,6200.00
1667,-0.0933600,6240.00
1668,-0.0934400,6160.00
1669,-0.0935200,6200.00
1670,-0.0936000,6160.00
1671,-0.0936800,6200.00
1672,-0.0937600,6160.00
1673,-0.0938400,6240.00
1674,-0.0939200,6160.00
1675,-0.0940000,6240.00
1676,-0.0940800,6160.00
1677,-0.0941600,6240.00
1678,-0.0942400,6160.00
1679,-0.0943200,6200.00
1680,-0.0944000,6160.00
1681,-0.0944800,6240.00
1682,-0.0945600,6200.00
1683,-0.0946400,6240.00
1684,-0.0947200,6200.00
1685,-0.0948000,6240.00
1686,-0.0948800,6200.00
1687,-0.0949600,6240.00
1688,-0.0950400,6160.00
1689,-0.0951200,6240.00
1690,-0.0952000,6200.00
1691,-0.0952800,6240.00
1692,-0.0953600,6200.00
1693,-0.0954400,6240.00
1694,-0.0955200,6200.00
1695,-0.0956000,6240.00
1696,-0.0956800,6200.00
1697,-0.0957600,6240.00
1698,-0.0958400,6200.00
1699,-0.0959200,6280.00
1700,-0.0960000,6200.00
1701,-0.0960800,6240.00
1702,-0.0961600,6200.00
1703,-0.0962400,6240.00
1704,-0.0963200,6200.00
1705,-0.0964000,6240.00
1706,-0.0964800,6200.00
1707,-0.0965600,6280.00
1708,-0.0966400,6200.00
1709,-0.0967200,6240.00
1710,-0.0968000,6200.00
1711,-0.0968800,6280.00
1712,-0.0969600,6200.00
1713,-0.0970400,6240.00
1714,-0.0971200,6200.00
1715,-0.0972000,6280.00
1716,-0.0972800,6240.00
1717,-0.0973600,6280.00
1718,-0.0974400,6240.00
1719,-0.0975200,6280.00
1720,-0.0976000,6240.00
1721,-0.0976800,6280.00
1722,-0.0977600,6240.00
1723,-0.0978400,6280.00
1724,-0.0979200,6200.00
1725,-0.0980000,6320.00
1726,-0.0980800,6240.00
1727,-0.0981600,6320.00
1728,-0.0982400,6240.00
1729,-0.0983200,6320.00
1730,-0.0984000,6240.00
1731,-0.0984800,6320.00
1732,-0.0985600,6240.00
1733,-0.0986400,6320.00
1734,-0.0987200,6280.00
1735,-0.0988000,6320.00
1736,-0.0988800,6280.00
1737,-0.0989600,6320.00
1738,-0.0990400,6240.00
1739,-0.0991200,6320.00
1740,-0.0992000,6240.00
1741,-0.0992800,6320.00
1742,-0.0993600,6280.00
1743,-0.0994400,6320.00
1744,-0.0995200,6320.00
1745,-0.0996000,6360.00
1746,-0.0996800,6280.00
1747,-0.0997600,6320.00
1748,-0.0998400,6280.00
1749,-0.0999200,6320.00
1750,-0.1000000,6280.00
1751,-0.1000800,6360.00
1752,-0.1001600,6320.00
1753,-0.1002400,6360.00
1754,-0.1003200,6320.00
1755,-0.1004000,6360.00
1756,-0.1004800,6280.00
1757,-0.1005600,6320.00
1758,-0.1006400,6320.00
1759,-0.1007200,6360.00
1760,-0.1008000,6320.00
1761,-0.1008800,6360.00
1762,-0.1009600,6320.00
1763,-0.1010400,6400.00
1764,-0.1011200,6320.00
1765,-0.1012000,6360.00
1766,-0.1012800,6320.00
1767,-0.1013600,6360.00
1768,-0.1014400,6320.00
1769,-0.1015200,6400.00
1770,-0.1016000,6320.00
1771,-0.1016800,6400.00
1772,-0.1017600,6320.00
1773,-0.1018400,6400.00
1774,-0.1019200,6320.00
1775,-0.1020000,6400.00
1776,-0.1020800,6320.00
1777,-0.1021600,6400.00
1778,-0.1022400,6360.00
1779,-0.1023200,6400.00
1780,-0.1024000,6320.00
1781,-0.1024800,6400.00
1782,-0.1025600,6360.00
1783,-0.1026400,6400.00
1784,-0.1027200,6360.00
1785,-0.1028000,6400.00
1786,-0.1028800,6360.00
1787,-0.1029600,6400.00
1788,-0.1030400,6360.00
1789,-0.1031200,6400.00
1790,-0.1032000,6360.00
1791,-0.1032800,6400.00
1792,-0.1033600,6360.00
1793,-0.1034400,6400.00
1794,-0.1035200,6360.00
1795,-0.1036000,6400.00
1796,-0.1036800,6360.00
1797,-0.1037600,6400.00
1798,-0.1038400,6360.00
1799,-0.1039200,6400.00
1800,-0.1040000,6360.00
1801,-0.1040800,6400.00
1802,-0.1041600,6360.00
1803,-0.1042400,6440.00
1804,-0.1043200,6400.00
1805,-0.1044000,6400.00
1806,-0.1044800,6400.00
1807,-0.1045600,6440.00
1808,-0.1046400,6400.00
1809,-0.1047200,6400.00
1810,-0.1048000,6400.00
1811,-0.1048800,6440.00
1812,-0.1049600,6400.00
1813,-0.1050400,6440.00
1814,-0.1051200,6400.00
1815,-0.1052000,6440.00
1816,-0.1052800,6400.00
1817,-0.1053600,6440.00
1818,-0.1054400,6400.00
1819,-0.1055200,6440.00
1820,-0.1056000,6400.00
1821,-0.1056800,6480.00
1822,-0.1057600,6400.00
1823,-0.1058400,6480.00
1824,-0.1059200,6400.00
1825,-0.1060000,6480.00
1826,-0.1060800,6400.00
1827,-0.1061600,6440.00
1828,-0.1062400,6400.00
1829,-0.1063200,6480.00
1830,-0.1064000,6440.00
1831,-0.1064800,6480.00
1832,-0.1065600,6400.00
1833,-0.1066400,6480.00
1834,-0.1067200,6400.00
1835,-0.1068000,6440.00
1836,-0.1068800,6400.00
1837,-0.1069600,6480.00
1838,-0.1070400,6400.00
1839,-0.1071200,6480.00
1840,-0.1072000,6400.00
1841,-0.1072800,6480.00
1842,-0.1073600,6400.00
1843,-0.1074400,6480.00
1844,-0.1075200,6400.00
1845,-0.1076000,6480.00
1846,-0.1076800,6400.00
1847,-0.1077600,6480.00
1848,-0.1078400,6440.00
1849,-0.1079200,6480.00
1850,-0.1080000,6400.00
1851,-0.1080800,6480.00
1852,-0.1081600,6400.00
1853,-0.1082400,6480.00
1854,-0.1083200,6440.00
1855,-0.1084000,6480.00
1856,-0.1084800,6440.00
1857,-0.1085600,6480.00
1858,-0.1086400,6400.00
1859,-0.1087200,6480.00
1860,-0.1088000,6400.00
1861,-0.1088800,6480.00
1862,-0.1089600,6440.00
1863,-0.1090400,6480.00
1864,-0.1091200,6480.00
1865,-0.1092000,6520.00
1866,-0.1092800,6440.00
1867,-0.1093600,6520.00
1868,-0.1094400,6440.00
1869,-0.1095200,6480.00
1870,-0.1096000,6440.00
1871,-0.1096800,6520.00
1872,-0.1097600,6480.00
1873,-0.1098400,6520.00
1874,-0.1099200,6480.00
1875,-0.1100000,6520.00
1876,-0.1100800,6480.00
1877,-0.1101600,6520.00
1878,-0.1102400,6480.00
1879,-0.1103200,6520.00
1880,-0.1104000,6480.00
1881,-0.1104800,6520.00
1882,-0.1105600,6520.00
1883,-0.1106400,6520.00
1884,-0.1107200,6480.00
1885,-0.1108000,6520.00
1886,-0.1108800,6480.00
1887,-0.1109600,6520.00
1888,-0.1110400,6480.00
1889,-0.1111200,6520.00
1890,-0.1112000,6520.00
1891,-0.1112800,6560.00
1892,-0.1113600,6520.00
1893,-0.1114400,6520.00
1894,-0.1115200,6520.00
1895,-0.1116000,6560.00
1896,-0.1116800,6520.00
1897,-0.1117600,6560.00
1898,-0.1118400,6520.00
1899,-0.1119200,6560.00
1900,-0.1120000,6520.00
1901,-0.1120800,6560.00
1902,-0.1121600,6520.00
1903,-0.1122400,6560.00
1904,-0.1123200,6520.00
1905,-0.1124000,6560.00
1906,-0.1124800,6520.00
1907,-0.1125600,6560.00
1908,-0.1126400,6520.00
1909,-0.1127200,6560.00
1910,-0.1128000,6520.00
1911,-0.1128800,6560.00
1912,-0.1129600,6520.00
1913,-0.1130400,6560.00
1914,-0.1131200,6520.00
1915,-0.1132000,6560.00
1916,-0.1132800,6520.00
1917,-0.1133600,6600.00
1918,-0.1134400,6520.00
1919,-0.1135200,6560.00
1920,-0.1136000,6520.00
1921,-0.1136800,6560.00
1922,-0.1137600,6520.00
1923,-0.1138400,6560.00
1924,-0.1139200,6520.00
1925,-0.1140000,6560.00
1926,-0.1140800,6520.00
1927,-0.1141600,6560.00
1928,-0.1142400,6520.00
1929,-0.1143200,6560.00
1930,-0.1144000,6520.00
1931,-0.1144800,6560.00
1932,-0.1145600,6520.00
1933,-0.1146400,6560.00
1934,-0.1147200,6560.00
1935,-0.1148000,6560.00
1936,-0.1148800,6520.00
1937,-0.1149600,6600.00
1938,-0.1150400,6520.00
1939,-0.1151200,6560.00
1940,-0.1152000,6520.00
1941,-0.1152800,6560.00
1942,-0.1153600,6520.00
1943,-0.1154400,6600.00
1944,-0.1155200,6560.00
1945,-0.1156000,6600.00
1946,-0.1156800,6520.00
1947,-0.1157600,6600.00
1948,-0.1158400,6520.00
1949,-0.1159200,6600.00
1950,-0.1160000,6560.00
1951,-0.1160800,6640.00
1952,-0.1161600,6560.00
1953,-0.1162400,6640.00
1954,-0.1163200,6520.00
1955,-0.1164000,6640.00
1956,-0.1164800,6560.00
1957,-0.1165600,6600.00
1958,-0.1166400,6560.00
1959,-0.1167200,6640.00
1960,-0.1168000,6560.00
1961,-0.1168800,6640.00
1962,-0.1169600,6560.00
1963,-0.1170400,6640.00
1964,-0.1171200,6560.00
1965,-0.1172000,6640.00
1966,-0.1172800,6560.00
1967,-0.1173600,6640.00
1968,-0.1174400,6560.00
1969,-0.1175200,6640.00
1970,-0.1176000,6560.00
1971,-0.1176800,6640.00
1972,-0.1177600,6560.00
1973,-0.1178400,6640.00
1974,-0.1179200,6560.00
1975,-0.1180000,6640.00
1976,-0.1180800,6560.00
1977,-0.1181600,6640.00
1978,-0.1182400,6560.00
1979,-0.1183200,6640.00
1980,-0.1184000,6560.00
1981,-0.1184800,6640.00
1982,-0.1185600,6560.00
1983,-0.1186400,6640.00
1984,-0.1187200,6560.00
1985,-0.1188000,6640.00
1986,-0.1188800,6560.00
1987,-0.1189600,6640.00
1988,-0.1190400,6560.00
1989,-0.1191200,6640.00
1990,-0.1192000,6560.00
1991,-0.1192800,6640.00
1992,-0.1193600,6560.00
1993,-0.1194400,6640.00
1994,-0.1195200,6560.00
1995,-0.1196000,6640.00
1996,-0.1196800,6560.00
1997,-0.1197600,6640.00
1998,-0.1198400,6560.00
1999,-0.1199200,6640.00
2000,-0.1200000,6560.00
2001,-0.1200800,6640.00
2002,-0.1201600,6560.00
2003,-0.1202400,6640.00
2004,-0.1203200,6600.00
2005,-0.1204000,6640.00
2006,-0.1204800,6560.00
2007,-0.1205600,6640.00
2008,-0.1206400,6560.00
2009,-0.1207200,6640.00
2010,-0.1208000,6600.00
2011,-0.1208800,6680.00
2012,-0.1209600,6640.00
2013,-0.1210400,6680.00
2014,-0.1211200,6600.00
2015,-0.1212000,6640.00
2016,-0.1212800,6560.00
2017,-0.1213600,6680.00
2018,-0.1214400,6600.00
2019,-0.1215200,6680.00
2020,-0.1216000,6640.00
2021,-0.1216800,6680.00
2022,-0.1217600,6640.00
2023,-0.1218400,6680.00
2024,-0.1219200,6600.00
2025,-0.1220000,6680.00
2026,-0.1220800,6600.00
2027,-0.1221600,6680.00
2028,-0.1222400,6640.00
2029,-0.1223200,6680.00
2030,-0.1224000,6640.00
2031,-0.1224800,6680.00
2032,-0.1225600,6600.00
2033,-0.1226400,6680.00
2034,-0.1227200,6600.00
2035,-0.1228000,6640.00
2036,-0.1228800,6600.00
2037,-0.1229600,6680.00
2038,-0.1230400,6640.00
2039,-0.1231200,6680.00
2040,-0.1232000,6600.00
2041,-0.1232800,6680.00
2042,-0.1233600,6600.00
2043,-0.1234400,6640.00
2044,-0.1235200,6600.00
2045,-0.1236000,6680.00
2046,-0.1236800,6640.00
2047,-0.1237600,6680.00
2048,-0.1238400,6640.00
2049,-0.1239200,6680.00
2050,-0.1240000,6600.00
2051,-0.1240800,6640.00
2052,-0.1241600,6640.00
2053,-0.1242400,6680.00
2054,-0.1243200,6640.00
2055,-0.1244000,6680.00
2056,-0.1244800,6640.00
2057,-0.1245600,6680.00
2058,-0.1246400,6600.00
2059,-0.1247200,6680.00
2060,-0.1248000,6600.00
2061,-0.1248800,6640.00
2062,-0.1249600,6640.00
2063,-0.1250400,6680.00
2064,-0.1251200,6640.00
2065,-0.1252000,6680.00
2066,-0.1252800,6640.00
2067,-0.1253600,6680.00
2068,-0.1254400,6640.00
2069,-0.1255200,6680.00
2070,-0.1256000,6640.00
2071,-0.1256800,6680.00
2072,-0.1257600,6640.00
2073,-0.1258400,6720.00
2074,-0.1259200,6640.00
2075,-0.1260000,6720.00
2076,-0.1260800,6640.00
2077,-0.1261600,6680.00
2078,-0.1262400,6640.00
2079,-0.1263200,6680.00
2080,-0.1264000,6640.00
2081,-0.1264800,6720.00
2082,-0.1265600,6680.00
2083,-0.1266400,6720.00
2084,-0.1267200,6640.00
2085,-0.1268000,6720.00
2086,-0.1268800,6640.00
2087,-0.1269600,6720.00
2088,-0.1270400,6640.00
2089,-0.1271200,6720.00
2090,-0.1272000,6680.00
2091,-0.1272800,6720.00
2092,-0.1273600,6680.00
2093,-0.1274400,6720.00
2094,-0.1275200,6640.00
2095,-0.1276000,6720.00
2096,-0.1276800,6640.00
2097,-0.1277600,6720.00
2098,-0.1278400,6680.00
2099,-0.1279200,6720.00
2100,-0.1280000,6680.00
2101,-0.1280800,6720.00
2102,-0.1281600,6640.00
2103,-0.1282400,6720.00
2104,-0.1283200,6640.00
2105,-0.1284000,6720.00
2106,-0.1284800,6680.00
2107,-0.1285600,6720.00
2108,-0.1286400,6680.00
2109,-0.1287200,6720.00
2110,-0.1288000,6680.00
2111,-0.1288800,6720.00
2112,-0.1289600,6640.00
2113,-0.1290400,6720.00
2114,-0.1291200,6640.00
2115,-0.1292000,6720.00
2116,-0.1292800,6680.00
2117,-0.1293600,6720.00
2118,-0.1294400,6680.00
2119,-0.1295200,6720.00
2120,-0.1296000,6640.00
2121,-0.1296800,6720.00
2122,-0.1297600,6680.00
2123,-0.1298400,6720.00
2124,-0.1299200,6680.00
2125,-0.1300000,6720.00
2126,-0.1300800,6680.00
2127,-0.1301600,6720.00
2128,-0.1302400,6680.00
2129,-0.1303200,6720.00
2130,-0.1304000,6640.00
2131,-0.1304800,6720.00
2132,-0.1305600,6680.00
2133,-0.1306400,6720.00
2134,-0.1307200,6680.00
2135,-0.1308000,6720.00
2136,-0.1308800,6640.00
2137,-0.1309600,6720.00
2138,-0.1310400,6640.00
2139,-0.1311200,6720.00
2140,-0.1312000,6680.00
2141,-0.1312800,6720.00
2142,-0.1313600,6680.00
2143,-0.1314400,6720.00
2144,-0.1315200,6680.00
2145,-0.1316000,6720.00
2146,-0.1316800,6640.00
2147,-0.1317600,6720.00
2148,-0.1318400,6680.00
2149,-0.1319200,6720.00
2150,-0.1320000,6720.00
2151,-0.1320800,6720.00
2152,-0.1321600,6680.00
2153,-0.1322400,6720.00
2154,-0.1323200,6680.00
2155,-0.1324000,6720.00
2156,-0.1324800,6720.00
2157,-0.1325600,6720.00
2158,-0.1326400,6720.00
2159,-0.1327200,6760.00
2160,-0.1328000,6720.00
2161,-0.1328800,6720.00
2162,-0.1329600,6680.00
2163,-0.1330400,6720.00
2164,-0.1331200,6680.00
2165,-0.1332000,6720.00
2166,-0.1332800,6720.00
2167,-0.1333600,6720.00
2168,-0.1334400,6720.00
2169,-0.1335200,6720.00
2170,-0.1336000,6720.00
2171,-0.1336800,6720.00
2172,-0.1337600,6680.00
2173,-0.1338400,6720.00
2174,-0.1339200,6680.00
2175,-0.1340000,6720.00
2176,-0.1340800,6720.00
2177,-0.1341600,6720.00
2178,-0.1342400,6720.00
2179,-0.1343200,6760.00
2180,-0.1344000,6680.00
2181,-0.1344800,6720.00
2182,-0.1345600,6680.00
2183,-0.1346400,6720.00
2184,-0.1347200,6720.00
2185,-0.1348000,6720.00
2186,-0.1348800,6720.00
2187,-0.1349600,6720.00
2188,-0.1350400,6680.00
2189,-0.1351200,6720.00
2190,-0.1352000,6680.00
2191,-0.1352800,6720.00
2192,-0.1353600,6680.00
2193,-0.1354400,6720.00
2194,-0.1355200,6720.00
2195,-0.1356000,6760.00
2196,-0.1356800,6720.00
2197,-0.1357600,6720.00
2198,-0.1358400,6680.00
2199,-0.1359200,6720.00
2200,-0.1360000,6680.00
2201,-0.1360800,6760.00
2202,-0.1361600,6720.00
2203,-0.1362400,6720.00
2204,-0.1363200,6680.00
2205,-0.1364000,6720.00
2206,-0.1364800,6720.00
2207,-0.1365600,6760.00
2208,-0.1366400,6680.00
2209,-0.1367200,6720.00
2210,-0.1368000,6720.00
2211,-0.1368800,6760.00
2212,-0.1369600,6720.00
2213,-0.1370400,6720.00
2214,-0.1371200,6720.00
2215,-0.1372000,6720.00
2216,-0.1372800,6720.00
2217,-0.1373600,6760.00
2218,-0.1374400,6720.00
2219,-0.1375200,6760.00
2220,-0.1376000,6720.00
2221,-0.1376800,6760.00
2222,-0.1377600,6720.00
2223,-0.1378400,6760.00
2224,-0.1379200,6720.00
2225,-0.1380000,6720.00
2226,-0.1380800,6720.00
2227,-0.1381600,6760.00
2228,-0.1382400,6720.00
2229,-0.1383200,6760.00
2230,-0.1384000,6720.00
2231,-0.1384800,6800.00
2232,-0.1385600,6720.00
2233,-0.1386400,6760.00
2234,-0.1387200,6720.00
2235,-0.1388000,6760.00
2236,-0.1388800,6720.00
2237,-0.1389600,6800.00
2238,-0.1390400,6720.00
2239,-0.1391200,6800.00
2240,-0.1392000,6720.00
2241,-0.1392800,6760.00
2242,-0.1393600,6720.00
2243,-0.1394400,6760.00
2244,-0.1395200,6720.00
2245,-0.1396000,6760.00
2246,-0.1396800,6720.00
2247,-0.1397600,6800.00
2248,-0.1398400,6720.00
2249,-0.1399200,6800.00
2250,-0.1400000,6720.00
2251,-0.1400800,6760.00
2252,-0.1401600,6720.00
2253,-0.1402400,6760.00
2254,-0.1403200,6720.00
2255,-0.1404000,6800.00
2256,-0.1404800,6720.00
2257,-0.1405600,6760.00
2258,-0.1406400,6720.00
2259,-0.1407200,6760.00
2260,-0.1408000,6720.00
2261,-0.1408800,6760.00
2262,-0.1409600,6720.00
2263,-0.1410400,6760.00
2264,-0.1411200,6720.00
2265,-0.1412000,6760.00
2266,-0.1412800,6720.00
2267,-0.1413600,6760.00
2268,-0.1414400,6720.00
2269,-0.1415200,6760.00
2270,-0.1416000,6720.00
2271,-0.1416800,6800.00
2272,-0.1417600,6720.00
2273,-0.1418400,6800.00
2274,-0.1419200,6720.00
2275,-0.1420000,6760.00
2276,-0.1420800,6720.00
2277,-0.1421600,6760.00
2278,-0.1422400,6720.00
2279,-0.1423200,6760.00
2280,-0.1424000,6720.00
2281,-0.1424800,6800.00
2282,-0.1425600,6720.00
2283,-0.1426400,6760.00
2284,-0.1427200,6720.00
2285,-0.1428000,6760.00
2286,-0.1428800,6720.00
2287,-0.1429600,6760.00
2288,-0.1430400,6720.00
2289,-0.1431200,6800.00
2290,-0.1432000,6720.00
2291,-0.1432800,6800.00
2292,-0.1433600,6720.00
2293,-0.1434400,6800.00
2294,-0.1435200,6720.00
2295,-0.1436000,6800.00
2296,-0.1436800,6720.00
2297,-0.1437600,6800.00
2298,-0.1438400,6720.00
2299,-0.1439200,6800.00
2300,-0.1440000,6720.00
2301,-0.1440800,6800.00
2302,-0.1441600,6720.00
2303,-0.1442400,6800.00
2304,-0.1443200,6720.00
2305,-0.1444000,6800.00
2306,-0.1444800,6720.00
2307,-0.1445600,6800.00
2308,-0.1446400,6720.00
2309,-0.1447200,6800.00
2310,-0.1448000,6720.00
2311,-0.1448800,6760.00
2312,-0.1449600,6720.00
2313,-0.1450400,6800.00
2314,-0.1451200,6720.00
2315,-0.1452000,6800.00
2316,-0.1452800,6720.00
2317,-0.1453600,6800.00
2318,-0.1454400,6720.00
2319,-0.1455200,6800.00
2320,-0.1456000,6720.00
2321,-0.1456800,6800.00
2322,-0.1457600,6720.00
2323,-0.1458400,6800.00
2324,-0.1459200,6760.00
2325,-0.1460000,6840.00
2326,-0.1460800,6720.00
2327,-0.1461600,6800.00
2328,-0.1462400,6720.00
2329,-0.1463200,6800.00
2330,-0.1464000,6720.00
2331,-0.1464800,6800.00
2332,-0.1465600,6720.00
2333,-0.1466400,6800.00
2334,-0.1467200,6720.00
2335,-0.1468000,6800.00
2336,-0.1468800,6720.00
2337,-0.1469600,6800.00
2338,-0.1470400,6720.00
2339,-0.1471200,6800.00
2340,-0.1472000,6720.00
2341,-0.1472800,6800.00
2342,-0.1473600,6760.00
2343,-0.1474400,6840.00
2344,-0.1475200,6720.00
2345,-0.1476000,6800.00
2346,-0.1476800,6720.00
2347,-0.1477600,6800.00
2348,-0.1478400,6720.00
2349,-0.1479200,6800.00
2350,-0.1480000,6760.00
2351,-0.1480800,6800.00
2352,-0.1481600,6720.00
2353,-0.1482400,6800.00
2354,-0.1483200,6720.00
2355,-0.1484000,6800.00
2356,-0.1484800,6760.00
2357,-0.1485600,6840.00
2358,-0.1486400,6760.00
2359,-0.1487200,6800.00
2360,-0.1488000,6760.00
2361,-0.1488800,6800.00
2362,-0.1489600,6720.00
2363,-0.1490400,6800.00
2364,-0.1491200,6720.00
2365,-0.1492000,6800.00
2366,-0.1492800,6720.00
2367,-0.1493600,6840.00
2368,-0.1494400,6760.00
2369,-0.1495200,6800.00
2370,-0.1496000,6720.00
2371,-0.1496800,6800.00
2372,-0.1497600,6720.00
2373,-0.1498400,6800.00
2374,-0.1499200,6760.00
2375,-0.1500000,6800.00
2376,-0.1500800,6720.00
2377,-0.1501600,6800.00
2378,-0.1502400,6720.00
2379,-0.1503200,6800.00
2380,-0.1504000,6720.00
2381,-0.1504800,6840.00
2382,-0.1505600,6760.00
2383,-0.1506400,6840.00
2384,-0.1507200,6760.00
2385,-0.1508000,6840.00
2386,-0.1508800,6760.00
2387,-0.1509600,6840.00
2388,-0.1510400,6720.00
2389,-0.1511200,6800.00
2390,-0.1512000,6720.00
2391,-0.1512800,6800.00
2392,-0.1513600,6760.00
2393,-0.1514400,6840.00
2394,-0.1515200,6760.00
2395,-0.1516000,6800.00
2396,-0.1516800,6720.00
2397,-0.1517600,6840.00
2398,-0.1518400,6720.00
2399,-0.1519200,6800.00
2400,-0.1520000,6760.00
2401,-0.1520800,6840.00
2402,-0.1521600,6760.00
2403,-0.1522400,6840.00
2404,-0.1523200,6720.00
2405,-0.1524000,6840.00
2406,-0.1524800,6720.00
2407,-0.1525600,6840.00
2408,-0.1526400,6760.00
2409,-0.1527200,6800.00
2410,-0.1528000,6760.00
2411,-0.1528800,6840.00
2412,-0.1529600,6720.00
2413,-0.1530400,6840.00
2414,-0.1531200,6760.00
2415,-0.1532000,6840.00
2416,-0.1532800,6760.00
2417,-0.1533600,6840.00
2418,-0.1534400,6720.00
2419,-0.1535200,6840.00
2420,-0.1536000,6760.00
2421,-0.1536800,6840.00
2422,-0.1537600,6760.00
2423,-0.1538400,6800.00
2424,-0.1539200,6720.00
2425,-0.1540000,6840.00
2426,-0.1540800,6760.00
2427,-0.1541600,6840.00
2428,-0.1542400,6760.00
2429,-0.1543200,6840.00
2430,-0.1544000,6760.00
2431,-0.1544800,6840.00
2432,-0.1545600,6760.00
2433,-0.1546400,6800.00
2434,-0.1547200,6760.00
2435,-0.1548000,6840.00
2436,-0.1548800,6800.00
2437,-0.1549600,6840.00
2438,-0.1550400,6800.00
2439,-0.1551200,6840.00
2440,-0.1552000,6720.00
2441,-0.1552800,6800.00
2442,-0.1553600,6760.00
2443,-0.1554400,6840.00
2444,-0.1555200,6760.00
2445,-0.1556000,6840.00
2446,-0.1556800,6760.00
2447,-0.1557600,6840.00
2448,-0.1558400,6760.00
2449,-0.1559200,6800.00
2450,-0.1560000,6760.00
2451,-0.1560800,6840.00
2452,-0.1561600,6760.00
2453,-0.1562400,6840.00
2454,-0.1563200,6800.00
2455,-0.1564000,6840.00
2456,-0.1564800,6720.00
2457,-0.1565600,6840.00
2458,-0.1566400,6720.00
2459,-0.1567200,6840.00
2460,-0.1568000,6760.00
2461,-0.1568800,6840.00
2462,-0.1569600,6760.00
2463,-0.1570400,6840.00
2464,-0.1571200,6760.00
2465,-0.1572000,6840.00
2466,-0.1572800,6760.00
2467,-0.1573600,6800.00
2468,-0.1574400,6760.00
2469,-0.1575200,6840.00
2470,-0.1576000,6800.00
2471,-0.1576800,6840.00
2472,-0.1577600,6760.00
2473,-0.1578400,6840.00
2474,-0.1579200,6760.00
2475,-0.1580000,6840.00
2476,-0.1580800,6720.00
2477,-0.1581600,6840.00
2478,-0.1582400,6760.00
2479,-0.1583200,6840.00
2480,-0.1584000,6800.00
2481,-0.1584800,6840.00
2482,-0.1585600,6760.00
2483,-0.1586400,6840.00
2484,-0.1587200,6760.00
2485,-0.1588000,6840.00
2486,-0.1588800,6800.00
2487,-0.1589600,6840.00
2488,-0.1590400,6800.00
2489,-0.1591200,6840.00
2490,-0.1592000,6800.00
2491,-0.1592800,6840.00
2492,-0.1593600,6760.00
2493,-0.1594400,6840.00
2494,-0.1595200,6760.00
2495,-0.1596000,6840.00
2496,-0.1596800,6800.00
2497,-0.1597600,6840.00
2498,-0.1598400,6800.00
2499,-0.1599200,6840.00
2500,-0.1600000,6760.00
2501,-0.1600800,6840.00
2502,-0.1601600,6760.00
2503,-0.1602400,6840.00
2504,-0.1603200,6800.00
2505,-0.1604000,6840.00
2506,-0.1604800,6800.00
2507,-0.1605600,6840.00
2508,-0.1606400,6760.00
2509,-0.1607200,6840.00
2510,-0.1608000,6760.00
2511,-0.1608800,6800.00
2512,-0.1609600,6760.00
2513,-0.1610400,6840.00
2514,-0.1611200,6800.00
2515,-0.1612000,6840.00
2516,-0.1612800,6760.00
2517,-0.1613600,6840.00
2518,-0.1614400,6760.00
2519,-0.1615200,6840.00
2520,-0.1616000,6760.00
2521,-0.1616800,6840.00
2522,-0.1617600,6760.00
2523,-0.1618400,6840.00
2524,-0.1619200,6760.00
2525,-0.1620000,6840.00
2526,-0.1620800,6760.00
2527,-0.1621600,6840.00
2528,-0.1622400,6760.00
2529,-0.1623200,6840.00
2530,-0.1624000,6760.00
2531,-0.1624800,6840.00
2532,-0.1625600,6760.00
2533,-0.1626400,6840.00
2534,-0.1627200,6760.00
2535,-0.1628000,6840.00
2536,-0.1628800,6760.00
2537,-0.1629600,6840.00
2538,-0.1630400,6760.00
2539,-0.1631200,6840.00
2540,-0.1632000,6800.00
2541,-0.1632800,6840.00
2542,-0.1633600,6800.00
2543,-0.1634400,6840.00
2544,-0.1635200,6760.00
2545,-0.1636000,6800.00
2546,-0.1636800,6800.00
2547,-0.1637600,6840.00
2548,-0.1638400,6800.00
2549,-0.1639200,6840.00
2550,-0.1640000,6800.00
2551,-0.1640800,6840.00
2552,-0.1641600,6760.00
2553,-0.1642400,6800.00
2554,-0.1643200,6800.00
2555,-0.1644000,6840.00
2556,-0.1644800,6800.00
2557,-0.1645600,6840.00
2558,-0.1646400,6800.00
2559,-0.1647200,6840.00
2560,-0.1648000,6760.00
2561,-0.1648800,6840.00
2562,-0.1649600,6760.00
2563,-0.1650400,6840.00
2564,-0.1651200,6760.00
2565,-0.1652000,6840.00
2566,-0.1652800,6760.00
2567,-0.1653600,6840.00
2568,-0.1654400,6760.00
2569,-0.1655200,6840.00
2570,-0.1656000,6760.00
2571,-0.1656800,6800.00
2572,-0.1657600,6760.00
2573,-0.1658400,6840.00
2574,-0.1659200,6800.00
2575,-0.1660000,6840.00
2576,-0.1660800,6760.00
2577,-0.1661600,6840.00
2578,-0.1662400,6760.00
2579,-0.1663200,6840.00
2580,-0.1664000,6760.00
2581,-0.1664800,6840.00
2582,-0.1665600,6760.00
2583,-0.1666400,6840.00
2584,-0.1667200,6800.00
2585,-0.1668000,6840.00
2586,-0.1668800,6760.00
2587,-0.1669600,6840.00
2588,-0.1670400,6760.00
2589,-0.1671200,6800.00
2590,-0.1672000,6760.00
2591,-0.1672800,6840.00
2592,-0.1673600,6800.00
2593,-0.1674400,6840.00
2594,-0.1675200,6800.00
2595,-0.1676000,6840.00
2596,-0.1676800,6760.00
2597,-0.1677600,6800.00
2598,-0.1678400,6760.00
2599,-0.1679200,6840.00
2600,-0.1680000,6800.00
2601,-0.1680800,6840.00
2602,-0.1681600,6760.00
2603,-0.1682400,6840.00
2604,-0.1683200,6760.00
2605,-0.1684000,6800.00
2606,-0.1684800,6800.00
2607,-0.1685600,6840.00
2608,-0.1686400,6800.00
2609,-0.1687200,6840.00
2610,-0.1688000,6760.00
2611,-0.1688800,6840.00
2612,-0.1689600,6760.00
2613,-0.1690400,6840.00
2614,-0.1691200,6760.00
2615,-0.1692000,6840.00
2616,-0.1692800,6760.00
2617,-0.1693600,6840.00
2618,-0.1694400,6800.00
2619,-0.1695200,6840.00
2620,-0.1696000,6760.00
2621,-0.1696800,6840.00
2622,-0.1697600,6760.00
2623,-0.1698400,6800.00
2624,-0.1699200,6760.00
2625,-0.1700000,6840.00
2626,-0.1700800,6800.00
2627,-0.1701600,6840.00
2628,-0.1702400,6760.00
2629,-0.1703200,6840.00
2630,-0.1704000,6760.00
2631,-0.1704800,6840.00
2632,-0.1705600,6760.00
2633,-0.1706400,6840.00
2634,-0.1707200,6760.00
2635,-0.1708000,6840.00
2636,-0.1708800,6800.00
2637,-0.1709600,6840.00
2638,-0.1710400,6720.00
2639,-0.1711200,6800.00
2640,-0.1712000,6760.00
2641,-0.1712800,6800.00
2642,-0.1713600,6800.00
2643,-0.1714400,6840.00
2644,-0.1715200,6800.00
2645,-0.1716000,6840.00
2646,-0.1716800,6760.00
2647,-0.1717600,6840.00
2648,-0.1718400,6760.00
2649,-0.1719200,6840.00
2650,-0.1720000,6760.00
2651,-0.1720800,6840.00
2652,-0.1721600,6800.00
2653,-0.1722400,6840.00
2654,-0.1723200,6760.00
2655,-0.1724000,6840.00
2656,-0.1724800,6760.00
2657,-0.1725600,6800.00
2658,-0.1726400,6720.00
2659,-0.1727200,6800.00
2660,-0.1728000,6760.00
2661,-0.1728800,6840.00
2662,-0.1729600,6800.00
2663,-0.1730400,6840.00
2664,-0.1731200,6760.00
2665,-0.1732000,6800.00
2666,-0.1732800,6760.00
2667,-0.1733600,6800.00
2668,-0.1734400,6760.00
2669,-0.1735200,6840.00
2670,-0.1736000,6760.00
2671,-0.1736800,6840.00
2672,-0.1737600,6760.00
2673,-0.1738400,6840.00
2674,-0.1739200,6760.00
2675,-0.1740000,6800.00
2676,-0.1740800,6760.00
2677,-0.1741600,6840.00
2678,-0.1742400,6760.00
2679,-0.1743200,6840.00
2680,-0.1744000,6760.00
2681,-0.1744800,6840.00
2682,-0.1745600,6760.00
2683,-0.1746400,6840.00
2684,-0.1747200,6760.00
2685,-0.1748000,6840.00
2686,-0.1748800,6760.00
2687,-0.1749600,6800.00
2688,-0.1750400,6760.00
2689,-0.1751200,6840.00
2690,-0.1752000,6720.00
2691,-0.1752800,6800.00
2692,-0.1753600,6760.00
2693,-0.1754400,6800.00
2694,-0.1755200,6760.00
2695,-0.1756000,6840.00
2696,-0.1756800,6760.00
2697,-0.1757600,6840.00
2698,-0.1758400,6720.00
2699,-0.1759200,6840.00
2700,-0.1760000,6720.00
2701,-0.1760800,6840.00
2702,-0.1761600,6760.00
2703,-0.1762400,6840.00
2704,-0.1763200,6760.00
2705,-0.1764000,6840.00
2706,-0.1764800,6760.00
2707,-0.1765600,6840.00
2708,-0.1766400,6720.00
2709,-0.1767200,6800.00
2710,-0.1768000,6720.00
2711,-0.1768800,6840.00
2712,-0.1769600,6720.00
2713,-0.1770400,6840.00
2714,-0.1771200,6760.00
2715,-0.1772000,6840.00
2716,-0.1772800,6720.00
2717,-0.1773600,6800.00
2718,-0.1774400,6720.00
2719,-0.1775200,6800.00
2720,-0.1776000,6760.00
2721,-0.1776800,6840.00
2722,-0.1777600,6720.00
2723,-0.1778400,6840.00
2724,-0.1779200,6720.00
2725,-0.1780000,6840.00
2726,-0.1780800,6720.00
2727,-0.1781600,6800.00
2728,-0.1782400,6720.00
2729,-0.1783200,6800.00
2730,-0.1784000,6760.00
2731,-0.1784800,6840.00
2732,-0.1785600,6720.00
2733,-0.1786400,6800.00
2734,-0.1787200,6720.00
2735,-0.1788000,6800.00
2736,-0.1788800,6720.00
2737,-0.1789600,6840.00
2738,-0.1790400,6760.00
2739,-0.1791200,6800.00
2740,-0.1792000,6760.00
2741,-0.1792800,6840.00
2742,-0.1793600,6760.00
2743,-0.1794400,6800.00
2744,-0.1795200,6720.00
2745,-0.1796000,6800.00
2746,-0.1796800,6760.00
2747,-0.1797600,6840.00
2748,-0.1798400,6760.00
2749,-0.1799200,6840.00
2750,-0.1800000,6760.00
2751,-0.1800800,6840.00
2752,-0.1801600,6720.00
2753,-0.1802400,6800.00
2754,-0.1803200,6760.00
2755,-0.1804000,6800.00
2756,-0.1804800,6760.00
2757,-0.1805600,6840.00
2758,-0.1806400,6720.00
2759,-0.1807200,6840.00
2760,-0.1808000,6760.00
2761,-0.1808800,6800.00
2762,-0.1809600,6760.00
2763,-0.1810400,6800.00
2764,-0.1811200,6760.00
2765,-0.1812000,6800.00
2766,-0.1812800,6760.00
2767,-0.1813600,6840.00
2768,-0.1814400,6720.00
2769,-0.1815200,6800.00
2770,-0.1816000,6720.00
2771,-0.1816800,6800.00
2772,-0.1817600,6760.00
2773,-0.1818400,6800.00
2774,-0.1819200,6760.00
2775,-0.1820000,6800.00
2776,-0.1820800,6720.00
2777,-0.1821600,6800.00
2778,-0.1822400,6720.00
2779,-0.1823200,6800.00
2780,-0.1824000,6720.00
2781,-0.1824800,6800.00
2782,-0.1825600,6760.00
2783,-0.1826400,6800.00
2784,-0.1827200,6720.00
2785,-0.1828000,6800.00
2786,-0.1828800,6720.00
2787,-0.1829600,6800.00
2788,-0.1830400,6720.00
2789,-0.1831200,6800.00
2790,-0.1832000,6720.00
2791,-0.1832800,6800.00
2792,-0.1833600,6760.00
2793,-0.1834400,6840.00
2794,-0.1835200,6720.00
2795,-0.1836000,6800.00
2796,-0.1836800,6720.00
2797,-0.1837600,6800.00
2798,-0.1838400,6720.00
2799,-0.1839200,6840.00
2800,-0.1840000,6760.00
2801,-0.1840800,6800.00
2802,-0.1841600,6720.00
2803,-0.1842400,6800.00
2804,-0.1843200,6720.00
2805,-0.1844000,6800.00
2806,-0.1844800,6760.00
2807,-0.1845600,6800.00
2808,-0.1846400,6760.00
2809,-0.1847200,6800.00
2810,-0.1848000,6720.00
2811,-0.1848800,6800.00
2812,-0.1849600,6720.00
2813,-0.1850400,6800.00
2814,-0.1851200,6720.00
2815,-0.1852000,6800.00
2816,-0.1852800,6760.00
2817,-0.1853600,6840.00
2818,-0.1854400,6760.00
2819,-0.1855200,6800.00
2820,-0.1856000,6720.00
2821,-0.1856800,6800.00
2822,-0.1857600,6720.00
2823,-0.1858400,6800.00
2824,-0.1859200,6720.00
2825,-0.1860000,6800.00
2826,-0.1860800,6720.00
2827,-0.1861600,6800.00
2828,-0.1862400,6720.00
2829,-0.1863200,6800.00
2830,-0.1864000,6720.00
2831,-0.1864800,6800.00
2832,-0.1865600,6720.00
2833,-0.1866400,6800.00
2834,-0.1867200,6720.00
2835,-0.1868000,6800.00
2836,-0.1868800,6720.00
2837,-0.1869600,6800.00
2838,-0.1870400,6720.00
2839,-0.1871200,6800.00
2840,-0.1872000,6720.00
2841,-0.1872800,6800.00
2842,-0.1873600,6720.00
2843,-0.1874400,6800.00
2844,-0.1875200,6760.00
2845,-0.1876000,6800.00
2846,-0.1876800,6720.00
2847,-0.1877600,6800.00
2848,-0.1878400,6720.00
2849,-0.1879200,6800.00
2850,-0.1880000,6720.00
2851,-0.1880800,6800.00
2852,-0.1881600,6720.00
2853,-0.1882400,6800.00
2854,-0.1883200,6720.00
2855,-0.1884000,6800.00
2856,-0.1884800,6720.00
2857,-0.1885600,6760.00
2858,-0.1886400,6720.00
2859,-0.1887200,6800.00
2860,-0.1888000,6720.00
2861,-0.1888800,6800.00
2862,-0.1889600,6720.00
2863,-0.1890400,6840.00
2864,-0.1891200,6720.00
2865,-0.1892000,6800.00
2866,-0.1892800,6720.00
2867,-0.1893600,6800.00
2868,-0.1894400,6720.00
2869,-0.1895200,6800.00
2870,-0.1896000,6720.00
2871,-0.1896800,6800.00
2872,-0.1897600,6720.00
2873,-0.1898400,6800.00
2874,-0.1899200,6720.00
2875,-0.1900000,6800.00
2876,-0.1900800,6720.00
2877,-0.1901600,6800.00
2878,-0.1902400,6720.00
2879,-0.1903200,6800.00
2880,-0.1904000,6720.00
2881,-0.1904800,6800.00
2882,-0.1905600,6720.00
2883,-0.1906400,6760.00
2884,-0.1907200,6720.00
2885,-0.1908000,6800.00
2886,-0.1908800,6720.00
2887,-0.1909600,6800.00
2888,-0.1910400,6720.00
2889,-0.1911200,6800.00
2890,-0.1912000,6720.00
2891,-0.1912800,6760.00
2892,-0.1913600,6720.00
2893,-0.1914400,6760.00
2894,-0.1915200,6720.00
2895,-0.1916000,6800.00
2896,-0.1916800,6720.00
2897,-0.1917600,6800.00
2898,-0.1918400,6720.00
2899,-0.1919200,6800.00
2900,-0.1920000,6720.00
2901,-0.1920800,6800.00
2902,-0.1921600,6720.00
2903,-0.1922400,6800.00
2904,-0.1923200,6720.00
2905,-0.1924000,6800.00
2906,-0.1924800,6720.00
2907,-0.1925600,6760.00
2908,-0.1926400,6720.00
2909,-0.1927200,6800.00
2910,-0.1928000,6720.00
2911,-0.1928800,6760.00
2912,-0.1929600,6720.00
2913,-0.1930400,6800.00
2914,-0.1931200,6720.00
2915,-0.1932000,6760.00
2916,-0.1932800,6720.00
2917,-0.1933600,6760.00
2918,-0.1934400,6720.00
2919,-0.1935200,6760.00
2920,-0.1936000,6720.00
2921,-0.1936800,6800.00
2922,-0.1937600,6720.00
2923,-0.1938400,6800.00
2924,-0.1939200,6720.00
2925,-0.1940000,6760.00
2926,-0.1940800,6720.00
2927,-0.1941600,6760.00
2928,-0.1942400,6720.00
2929,-0.1943200,6800.00
2930,-0.1944000,6720.00
2931,-0.1944800,6800.00
2932,-0.1945600,6720.00
2933,-0.1946400,6760.00
2934,-0.1947200,6720.00
2935,-0.1948000,6800.00
2936,-0.1948800,6720.00
2937,-0.1949600,6800.00
2938,-0.1950400,6720.00
2939,-0.1951200,6800.00
2940,-0.1952000,6720.00
2941,-0.1952800,6760.00
2942,-0.1953600,6720.00
2943,-0.1954400,6760.00
2944,-0.1955200,6720.00
2945,-0.1956000,6760.00
2946,-0.1956800,6720.00
2947,-0.1957600,6800.00
2948,-0.1958400,6720.00
2949,-0.1959200,6760.00
2950,-0.1960000,6720.00
2951,-0.1960800,6760.00
2952,-0.1961600,6720.00
2953,-0.1962400,6760.00
2954,-0.1963200,6720.00
2955,-0.1964000,6800.00
2956,-0.1964800,6720.00
2957,-0.1965600,6800.00
2958,-0.1966400,6720.00
2959,-0.1967200,6760.00
2960,-0.1968000,6720.00
2961,-0.1968800,6760.00
2962,-0.1969600,6720.00
2963,-0.1970400,6760.00
2964,-0.1971200,6720.00
2965,-0.1972000,6800.00
2966,-0.1972800,6720.00
2967,-0.1973600,6800.00
2968,-0.1974400,6720.00
2969,-0.1975200,6760.00
2970,-0.1976000,6720.00
2971,-0.1976800,6760.00
2972,-0.1977600,6720.00
2973,-0.1978400,6800.00
2974,-0.1979200,6720.00
2975,-0.1980000,6800.00
2976,-0.1980800,6720.00
2977,-0.1981600,6760.00
2978,-0.1982400,6720.00
2979,-0.1983200,6760.00
2980,-0.1984000,6720.00
2981,-0.1984800,6800.00
2982,-0.1985600,6720.00
2983,-0.1986400,6800.00
2984,-0.1987200,6720.00
2985,-0.1988000,6760.00
2986,-0.1988800,6720.00
2987,-0.1989600,6760.00
2988,-0.1990400,6720.00
2989,-0.1991200,6800.00
2990,-0.1992000,6720.00
2991,-0.1992800,6800.00
2992,-0.1993600,6720.00
2993,-0.1994400,6800.00
2994,-0.1995200,6720.00
2995,-0.1996000,6760.00
2996,-0.1996800,6720.00
2997,-0.1997600,6760.00
2998,-0.1998400,6720.00
2999,-0.1999200,6800.00
3000,-0.2000000,6720.00
3001,-0.2000800,6760.00
3002,-0.2001600,6720.00
3003,-0.2002400,6720.00
3004,-0.2003200,6720.00
3005,-0.2004000,6800.00
3006,-0.2004800,6720.00
3007,-0.2005600,6760.00
3008,-0.2006400,6720.00
3009,-0.2007200,6760.00
3010,-0.2008000,6720.00
3011,-0.2008800,6760.00
3012,-0.2009600,6720.00
3013,-0.2010400,6760.00
3014,-0.2011200,6720.00
3015,-0.2012000,6760.00
3016,-0.2012800,6720.00
3017,-0.2013600,6760.00
3018,-0.2014400,6720.00
3019,-0.2015200,6760.00
3020,-0.2016000,6720.00
3021,-0.2016800,6720.00
3022,-0.2017600,6720.00
3023,-0.2018400,6720.00
3024,-0.2019200,6720.00
3025,-0.2020000,6760.00
3026,-0.2020800,6720.00
3027,-0.2021600,6760.00
3028,-0.2022400,6720.00
3029,-0.2023200,6720.00
3030,-0.2024000,6720.00
3031,-0.2024800,6760.00
3032,-0.2025600,6720.00
3033,-0.2026400,6760.00
3034,-0.2027200,6720.00
3035,-0.2028000,6760.00
3036,-0.2028800,6720.00
3037,-0.2029600,6760.00
3038,-0.2030400,6720.00
3039,-0.2031200,6720.00
3040,-0.2032000,6720.00
3041,-0.2032800,6760.00
3042,-0.2033600,6720.00
3043,-0.2034400,6760.00
3044,-0.2035200,6720.00
3045,-0.2036000,6760.00
3046,-0.2036800,6720.00
3047,-0.2037600,6720.00
3048,-0.2038400,6720.00
3049,-0.2039200,6720.00
3050,-0.2040000,6720.00
3051,-0.2040800,6800.00
3052,-0.2041600,6720.00
3053,-0.2042400,6760.00
3054,-0.2043200,6720.00
3055,-0.2044000,6720.00
3056,-0.2044800,6720.00
3057,-0.2045600,6760.00
3058,-0.2046400,6720.00
3059,-0.2047200,6760.00
3060,-0.2048000,6720.00
3061,-0.2048800,6760.00
3062,-0.2049600,6720.00
3063,-0.2050400,6760.00
3064,-0.2051200,6680.00
3065,-0.2052000,6720.00
3066,-0.2052800,6720.00
3067,-0.2053600,6760.00
3068,-0.2054400,6720.00
3069,-0.2055200,6760.00
3070,-0.2056000,6720.00
3071,-0.2056800,6720.00
3072,-0.2057600,6720.00
3073,-0.2058400,6720.00
3074,-0.2059200,6720.00
3075,-0.2060000,6720.00
3076,-0.2060800,6720.00
3077,-0.2061600,6760.00
3078,-0.2062400,6720.00
3079,-0.2063200,6760.00
3080,-0.2064000,6720.00
3081,-0.2064800,6720.00
3082,-0.2065600,6720.00
3083,-0.2066400,6760.00
3084,-0.2067200,6720.00
3085,-0.2068000,6760.00
3086,-0.2068800,6720.00
3087,-0.2069600,6720.00
3088,-0.2070400,6720.00
3089,-0.2071200,6720.00
3090,-0.2072000,6720.00
3091,-0.2072800,6720.00
3092,-0.2073600,6720.00
3093,-0.2074400,6760.00
3094,-0.2075200,6720.00
3095,-0.2076000,6760.00
3096,-0.2076800,6720.00
3097,-0.2077600,6760.00
3098,-0.2078400,6720.00
3099,-0.2079200,6720.00
3100,-0.2080000,6680.00
3101,-0.2080800,6760.00
3102,-0.2081600,6720.00
3103,-0.2082400,6760.00
3104,-0.2083200,6720.00
3105,-0.2084000,6720.00
3106,-0.2084800,6720.00
3107,-0.2085600,6720.00
3108,-0.2086400,6680.00
3109,-0.2087200,6720.00
3110,-0.2088000,6720.00
3111,-0.2088800,6760.00
3112,-0.2089600,6720.00
3113,-0.2090400,6720.00
3114,-0.2091200,6720.00
3115,-0.2092000,6720.00
3116,-0.2092800,6720.00
3117,-0.2093600,6720.00
3118,-0.2094400,6720.00
3119,-0.2095200,6720.00
3120,-0.2096000,6720.00
3121,-0.2096800,6800.00
3122,-0.2097600,6680.00
3123,-0.2098400,6720.00
3124,-0.2099200,6680.00
3125,-0.2100000,6720.00
3126,-0.2100800,6720.00
3127,-0.2101600,6720.00
3128,-0.2102400,6720.00
3129,-0.2103200,6720.00
3130,-0.2104000,6720.00
3131,-0.2104800,6720.00
3132,-0.2105600,6720.00
3133,-0.2106400,6720.00
3134,-0.2107200,6680.00
3135,-0.2108000,6720.00
3136,-0.2108800,6720.00
3137,-0.2109600,6760.00
3138,-0.2110400,6720.00
3139,-0.2111200,6720.00
3140,-0.2112000,6680.00
3141,-0.2112800,6720.00
3142,-0.2113600,6680.00
3143,-0.2114400,6720.00
3144,-0.2115200,6720.00
3145,-0.2116000,6720.00
3146,-0.2116800,6680.00
3147,-0.2117600,6720.00
3148,-0.2118400,6680.00
3149,-0.2119200,6720.00
3150,-0.2120000,6680.00
3151,-0.2120800,6720.00
3152,-0.2121600,6720.00
3153,-0.2122400,6760.00
3154,-0.2123200,6680.00
3155,-0.2124000,6720.00
3156,-0.2124800,6720.00
3157,-0.2125600,6720.00
3158,-0.2126400,6680.00
3159,-0.2127200,6720.00
3160,-0.2128000,6680.00
3161,-0.2128800,6720.00
3162,-0.2129600,6720.00
3163,-0.2130400,6720.00
3164,-0.2131200,6720.00
3165,-0.2132000,6760.00
3166,-0.2132800,6680.00
3167,-0.2133600,6720.00
3168,-0.2134400,6680.00
3169,-0.2135200,6720.00
3170,-0.2136000,6720.00
3171,-0.2136800,6720.00
3172,-0.2137600,6680.00
3173,-0.2138400,6720.00
3174,-0.2139200,6680.00
3175,-0.2140000,6720.00
3176,-0.2140800,6680.00
3177,-0.2141600,6720.00
3178,-0.2142400,6680.00
3179,-0.2143200,6720.00
3180,-0.2144000,6680.00
3181,-0.2144800,6720.00
3182,-0.2145600,6680.00
3183,-0.2146400,6720.00
3184,-0.2147200,6680.00
3185,-0.2148000,6720.00
3186,-0.2148800,6680.00
3187,-0.2149600,6720.00
3188,-0.2150400,6680.00
3189,-0.2151200,6720.00
3190,-0.2152000,6680.00
3191,-0.2152800,6720.00
3192,-0.2153600,6680.00
3193,-0.2154400,6720.00
3194,-0.2155200,6680.00
3195,-0.2156000,6720.00
3196,-0.2156800,6680.00
3197,-0.2157600,6720.00
3198,-0.2158400,6680.00
3199,-0.2159200,6720.00
3200,-0.2160000,6680.00
3201,-0.2160800,6720.00
3202,-0.2161600,6680.00
3203,-0.2162400,6720.00
3204,-0.2163200,6680.00
3205,-0.2164000,6720.00
3206,-0.2164800,6680.00
3207,-0.2165600,6720.00
3208,-0.2166400,6680.00
3209,-0.2167200,6720.00
3210,-0.2168000,6680.00
3211,-0.2168800,6720.00
3212,-0.2169600,6680.00
3213,-0.2170400,6720.00
3214,-0.2171200,6680.00
3215,-0.2172000,6720.00
3216,-0.2172800,6680.00
3217,-0.2173600,6720.00
3218,-0.2174400,6680.00
3219,-0.2175200,6720.00
3220,-0.2176000,6680.00
3221,-0.2176800,6720.00
3222,-0.2177600,6680.00
3223,-0.2178400,6720.00
3224,-0.2179200,6680.00
3225,-0.2180000,6720.00
3226,-0.2180800,6680.00
3227,-0.2181600,6720.00
3228,-0.2182400,6640.00
3229,-0.2183200,6720.00
3230,-0.2184000,6680.00
3231,-0.2184800,6720.00
3232,-0.2185600,6680.00
3233,-0.2186400,6720.00
3234,-0.2187200,6640.00
3235,-0.2188000,6720.00
3236,-0.2188800,6680.00
3237,-0.2189600,6720.00
3238,-0.2190400,6680.00
3239,-0.2191200,6720.00
3240,-0.2192000,6680.00
3241,-0.2192800,6720.00
3242,-0.2193600,6680.00
3243,-0.2194400,6720.00
3244,-0.2195200,6640.00
3245,-0.2196000,6720.00
3246,-0.2196800,6640.00
3247,-0.2197600,6720.00
3248,-0.2198400,6680.00
3249,-0.2199200,6720.00
3250,-0.2200000,6680.00
3251,-0.2200800,6720.00
3252,-0.2201600,6640.00
3253,-0.2202400,6680.00
3254,-0.2203200,6560.00
3255,-0.2204000,6640.00
3256,-0.2204800,6560.00
3257,-0.2205600,6640.00
3258,-0.2206400,6520.00
3259,-0.2207200,6560.00
3260,-0.2208000,6440.00
3261,-0.2208800,6520.00
3262,-0.2209600,6360.00
3263,-0.2210400,6440.00
3264,-0.2211200,6240.00
3265,-0.2212000,6360.00
3266,-0.2212800,6200.00
3267,-0.2213600,6280.00
3268,-0.2214400,6080.00
3269,-0.2215200,6200.00
3270,-0.2216000,5960.00
3271,-0.2216800,6080.00
3272,-0.2217600,5840.00
3273,-0.2218400,5960.00
3274,-0.2219200,5760.00
3275,-0.2220000,5840.00
3276,-0.2220800,5600.00
3277,-0.2221600,5760.00
3278,-0.2222400,5480.00
3279,-0.2223200,5600.00
3280,-0.2224000,5400.00
3281,-0.2224800,5520.00
3282,-0.2225600,5280.00
3283,-0.2226400,5360.00
3284,-0.2227200,5160.00
3285,-0.2228000,5280.00
3286,-0.2228800,5040.00
3287,-0.2229600,5160.00
3288,-0.2230400,4920.00
3289,-0.2231200,5040.00
3290,-0.2232000,4840.00
3291,-0.2232800,4920.00
3292,-0.2233600,4760.00
3293,-0.2234400,4880.00
3294,-0.2235200,4680.00
3295,-0.2236000,4800.00
3296,-0.2236800,4600.00
3297,-0.2237600,4680.00
3298,-0.2238400,4480.00
3299,-0.2239200,4560.00
3300,-0.2240000,4440.00
3301,-0.2240800,4480.00
3302,-0.2241600,4320.00
3303,-0.2242400,4440.00
3304,-0.2243200,4240.00
3305,-0.2244000,4360.00
3306,-0.2244800,4160.00
3307,-0.2245600,4280.00
3308,-0.2246400,4120.00
3309,-0.2247200,4200.00
3310,-0.2248000,4040.00
3311,-0.2248800,4120.00
3312,-0.2249600,3960.00
3313,-0.2250400,4080.00
3314,-0.2251200,3880.00
3315,-0.2252000,3960.00
3316,-0.2252800,3800.00
3317,-0.2253600,3880.00
3318,-0.2254400,3800.00
3319,-0.2255200,3840.00
3320,-0.2256000,3720.00
3321,-0.2256800,3800.00
3322,-0.2257600,3600.00
3323,-0.2258400,3720.00
3324,-0.2259200,3560.00
3325,-0.2260000,3640.00
3326,-0.2260800,3520.00
3327,-0.2261600,3600.00
3328,-0.2262400,3480.00
3329,-0.2263200,3520.00
3330,-0.2264000,3400.00
3331,-0.2264800,3520.00
3332,-0.2265600,3360.00
3333,-0.2266400,3400.00
3334,-0.2267200,3280.00
3335,-0.2268000,3360.00
3336,-0.2268800,3280.00
3337,-0.2269600,3320.00
3338,-0.2270400,3200.00
3339,-0.2271200,3320.00
3340,-0.2272000,3120.00
3341,-0.2272800,3200.00
3342,-0.2273600,3080.00
3343,-0.2274400,3160.00
3344,-0.2275200,3040.00
3345,-0.2276000,3120.00
3346,-0.2276800,3000.00
3347,-0.2277600,3080.00
3348,-0.2278400,2920.00
3349,-0.2279200,3000.00
3350,-0.2280000,2880.00
3351,-0.2280800,2960.00
3352,-0.2281600,2880.00
3353,-0.2282400,2920.00
3354,-0.2283200,2840.00
3355,-0.2284000,2880.00
3356,-0.2284800,2760.00
3357,-0.2285600,2840.00
3358,-0.2286400,2720.00
3359,-0.2287200,2800.00
3360,-0.2288000,2680.00
3361,-0.2288800,2720.00
3362,-0.2289600,2680.00
3363,-0.2290400,2720.00
3364,-0.2291200,2600.00
3365,-0.2292000,2680.00
3366,-0.2292800,2560.00
3367,-0.2293600,2640.00
3368,-0.2294400,2560.00
3369,-0.2295200,2600.00
3370,-0.2296000,2560.00
3371,-0.2296800,2560.00
3372,-0.2297600,2480.00
3373,-0.2298400,2560.00
3374,-0.2299200,2440.00
3375,-0.2300000,2520.00
3376,-0.2300800,2400.00
3377,-0.2301600,2480.00
3378,-0.2302400,2360.00
3379,-0.2303200,2440.00
3380,-0.2304000,2360.00
3381,-0.2304800,2400.00
3382,-0.2305600,2320.00
3383,-0.2306400,2360.00
3384,-0.2307200,2280.00
3385,-0.2308000,2320.00
3386,-0.2308800,2240.00
3387,-0.2309600,2320.00
3388,-0.2310400,2240.00
3389,-0.2311200,2280.00
3390,-0.2312000,2200.00
3391,-0.2312800,2280.00
3392,-0.2313600,2160.00
3393,-0.2314400,2240.00
3394,-0.2315200,2160.00
3395,-0.2316000,2200.00
3396,-0.2316800,2120.00
3397,-0.2317600,2200.00
3398,-0.2318400,2080.00
3399,-0.2319200,2160.00
3400,-0.2320000,2040.00
3401,-0.2320800,2080.00
3402,-0.2321600,2040.00
3403,-0.2322400,2080.00
3404,-0.2323200,2000.00
3405,-0.2324000,2040.00
3406,-0.2324800,2000.00
3407,-0.2325600,2040.00
3408,-0.2326400,1920.00
3409,-0.2327200,2000.00
3410,-0.2328000,1880.00
3411,-0.2328800,1960.00
3412,-0.2329600,1880.00
3413,-0.2330400,1960.00
3414,-0.2331200,1880.00
3415,-0.2332000,1920.00
3416,-0.2332800,1840.00
3417,-0.2333600,1920.00
3418,-0.2334400,1840.00
3419,-0.2335200,1880.00
3420,-0.2336000,1840.00
3421,-0.2336800,1840.00
3422,-0.2337600,1800.00
3423,-0.2338400,1840.00
3424,-0.2339200,1760.00
3425,-0.2340000,1840.00
3426,-0.2340800,1720.00
3427,-0.2341600,1760.00
3428,-0.2342400,1720.00
3429,-0.2343200,1760.00
3430,-0.2344000,1720.00
3431,-0.2344800,1760.00
3432,-0.2345600,1680.00
3433,-0.2346400,1760.00
3434,-0.2347200,1680.00
3435,-0.2348000,1720.00
3436,-0.2348800,1600.00
3437,-0.2349600,1680.00
3438,-0.2350400,1600.00
3439,-0.2351200,1680.00
3440,-0.2352000,1600.00
3441,-0.2352800,1680.00
3442,-0.2353600,1600.00
3443,-0.2354400,1640.00
3444,-0.2355200,1560.00
3445,-0.2356000,1600.00
3446,-0.2356800,1560.00
3447,-0.2357600,1600.00
3448,-0.2358400,1560.00
3449,-0.2359200,1600.00
3450,-0.2360000,1520.00
3451,-0.2360800,1560.00
3452,-0.2361600,1480.00
3453,-0.2362400,1560.00
3454,-0.2363200,1480.00
3455,-0.2364000,1520.00
3456,-0.2364800,1440.00
3457,-0.2365600,1520.00
3458,-0.2366400,1440.00
3459,-0.2367200,1520.00
3460,-0.2368000,1400.00
3461,-0.2368800,1480.00
3462,-0.2369600,1400.00
3463,-0.2370400,1440.00
3464,-0.2371200,1400.00
3465,-0.2372000,1440.00
3466,-0.2372800,1400.00
3467,-0.2373600,1440.00
3468,-0.2374400,1360.00
3469,-0.2375200,1440.00
3470,-0.2376000,1360.00
3471,-0.2376800,1400.00
3472,-0.2377600,1360.00
3473,-0.2378400,1400.00
3474,-0.2379200,1360.00
3475,-0.2380000,1400.00
3476,-0.2380800,1320.00
3477,-0.2381600,1360.00
3478,-0.2382400,1280.00
3479,-0.2383200,1360.00
3480,-0.2384000,1280.00
3481,-0.2384800,1320.00
3482,-0.2385600,1280.00
3483,-0.2386400,1320.00
3484,-0.2387200,1280.00
3485,-0.2388000,1360.00
3486,-0.2388800,1240.00
3487,-0.2389600,1280.00
3488,-0.2390400,1240.00
3489,-0.2391200,1280.00
3490,-0.2392000,1240.00
3491,-0.2392800,1280.00
3492,-0.2393600,1240.00
3493,-0.2394400,1280.00
3494,-0.2395200,1200.00
3495,-0.2396000,1280.00
3496,-0.2396800,1160.00
3497,-0.2397600,1240.00
3498,-0.2398400,1160.00
3499,-0.2399200,1200.00
3500,-0.2400000,1160.00
3501,-0.2400800,1200.00
3502,-0.2401600,1120.00
3503,-0.2402400,1200.00
3504,-0.2403200,1080.00
3505,-0.2404000,1200.00
3506,-0.2404800,1080.00
3507,-0.2405600,1160.00
3508,-0.2406400,1080.00
3509,-0.2407200,1160.00
3510,-0.2408000,1080.00
3511,-0.2408800,1160.00
3512,-0.2409600,1080.00
3513,-0.2410400,1120.00
3514,-0.2411200,1040.00
3515,-0.2412000,1120.00
3516,-0.2412800,1080.00
3517,-0.2413600,1120.00
3518,-0.2414400,1040.00
3519,-0.2415200,1120.00
3520,-0.2416000,1040.00
3521,-0.2416800,1120.00
3522,-0.2417600,1040.00
3523,-0.2418400,1080.00
3524,-0.2419200,1040.00
3525,-0.2420000,1080.00
3526,-0.2420800,1040.00
3527,-0.2421600,1080.00
3528,-0.2422400,1000.00
3529,-0.2423200,1080.00
3530,-0.2424000,1000.00
3531,-0.2424800,1040.00
3532,-0.2425600,960.00
3533,-0.2426400,1040.00
3534,-0.2427200,960.00
3535,-0.2428000,1040.00
3536,-0.2428800,960.00
3537,-0.2429600,1040.00
3538,-0.2430400,960.00
3539,-0.2431200,1000.00
3540,-0.2432000,960.00
3541,-0.2432800,960.00
3542,-0.2433600,920.00
3543,-0.2434400,960.00
3544,-0.2435200,960.00
3545,-0.2436000,960.00
3546,-0.2436800,920.00
3547,-0.2437600,960.00
3548,-0.2438400,880.00
3549,-0.2439200,960.00
3550,-0.2440000,920.00
3551,-0.2440800,960.00
3552,-0.2441600,880.00
3553,-0.2442400,960.00
3554,-0.2443200,880.00
3555,-0.2444000,960.00
3556,-0.2444800,880.00
3557,-0.2445600,960.00
3558,-0.2446400,880.00
3559,-0.2447200,920.00
3560,-0.2448000,840.00
3561,-0.2448800,920.00
3562,-0.2449600,880.00
3563,-0.2450400,920.00
3564,-0.2451200,840.00
3565,-0.2452000,920.00
3566,-0.2452800,840.00
3567,-0.2453600,880.00
3568,-0.2454400,840.00
3569,-0.2455200,880.00
3570,-0.2456000,800.00
3571,-0.2456800,880.00
3572,-0.2457600,800.00
3573,-0.2458400,880.00
3574,-0.2459200,800.00
3575,-0.2460000,880.00
3576,-0.2460800,800.00
3577,-0.2461600,840.00
3578,-0.2462400,800.00
3579,-0.2463200,880.00
3580,-0.2464000,800.00
3581,-0.2464800,880.00
3582,-0.2465600,760.00
3583,-0.2466400,800.00
3584,-0.2467200,800.00
3585,-0.2468000,800.00
3586,-0.2468800,800.00
3587,-0.2469600,840.00
3588,-0.2470400,760.00
3589,-0.2471200,800.00
3590,-0.2472000,760.00
3591,-0.2472800,800.00
3592,-0.2473600,760.00
3593,-0.2474400,800.00
3594,-0.2475200,760.00
3595,-0.2476000,800.00
3596,-0.2476800,720.00
3597,-0.2477600,800.00
3598,-0.2478400,720.00
3599,-0.2479200,800.00
3600,-0.2480000,720.00
3601,-0.2480800,760.00
3602,-0.2481600,720.00
3603,-0.2482400,760.00
3604,-0.2483200,720.00
3605,-0.2484000,760.00
3606,-0.2484800,720.00
3607,-0.2485600,760.00
3608,-0.2486400,680.00
3609,-0.2487200,760.00
3610,-0.2488000,680.00
3611,-0.2488800,760.00
3612,-0.2489600,680.00
3613,-0.2490400,760.00
3614,-0.2491200,680.00
3615,-0.2492000,720.00
3616,-0.2492800,640.00
3617,-0.2493600,720.00
3618,-0.2494400,640.00
3619,-0.2495200,720.00
3620,-0.2496000,640.00
3621,-0.2496800,720.00
3622,-0.2497600,640.00
3623,-0.2498400,720.00
3624,-0.2499200,640.00
3625,-0.2500000,720.00
3626,-0.2500800,640.00
3627,-0.2501600,680.00
3628,-0.2502400,640.00
3629,-0.2503200,680.00
3630,-0.2504000,640.00
3631,-0.2504800,680.00
3632,-0.2505600,640.00
3633,-0.2506400,680.00
3634,-0.2507200,640.00
3635,-0.2508000,640.00
3636,-0.2508800,640.00
3637,-0.2509600,680.00
3638,-0.2510400,640.00
3639,-0.2511200,640.00
3640,-0.2512000,640.00
3641,-0.2512800,640.00
3642,-0.2513600,600.00
3643,-0.2514400,640.00
3644,-0.2515200,600.00
3645,-0.2516000,640.00
3646,-0.2516800,600.00
3647,-0.2517600,640.00
3648,-0.2518400,600.00
3649,-0.2519200,640.00
3650,-0.2520000,560.00
3651,-0.2520800,640.00
3652,-0.2521600,560.00
3653,-0.2522400,640.00
3654,-0.2523200,560.00
3655,-0.2524000,640.00
3656,-0.2524800,560.00
3657,-0.2525600,640.00
3658,-0.2526400,560.00
3659,-0.2527200,640.00
3660,-0.2528000,560.00
3661,-0.2528800,600.00
3662,-0.2529600,560.00
3663,-0.2530400,600.00
3664,-0.2531200,560.00
3665,-0.2532000,600.00
3666,-0.2532800,560.00
3667,-0.2533600,600.00
3668,-0.2534400,560.00
3669,-0.2535200,600.00
3670,-0.2536000,520.00
3671,-0.2536800,560.00
3672,-0.2537600,520.00
3673,-0.2538400,600.00
3674,-0.2539200,560.00
3675,-0.2540000,600.00
3676,-0.2540800,520.00
3677,-0.2541600,560.00
3678,-0.2542400,480.00
3679,-0.2543200,560.00
3680,-0.2544000,480.00
3681,-0.2544800,560.00
3682,-0.2545600,520.00
3683,-0.2546400,560.00
3684,-0.2547200,480.00
3685,-0.2548000,560.00
3686,-0.2548800,480.00
3687,-0.2549600,520.00
3688,-0.2550400,480.00
3689,-0.2551200,560.00
3690,-0.2552000,480.00
3691,-0.2552800,560.00
3692,-0.2553600,480.00
3693,-0.2554400,560.00
3694,-0.2555200,480.00
3695,-0.2556000,520.00
3696,-0.2556800,440.00
3697,-0.2557600,480.00
3698,-0.2558400,480.00
3699,-0.2559200,520.00
3700,-0.2560000,480.00
3701,-0.2560800,520.00
3702,-0.2561600,480.00
3703,-0.2562400,520.00
3704,-0.2563200,440.00
3705,-0.2564000,480.00
3706,-0.2564800,440.00
3707,-0.2565600,480.00
3708,-0.2566400,480.00
3709,-0.2567200,480.00
3710,-0.2568000,440.00
3711,-0.2568800,480.00
3712,-0.2569600,440.00
3713,-0.2570400,480.00
3714,-0.2571200,440.00
3715,-0.2572000,480.00
3716,-0.2572800,440.00
3717,-0.2573600,480.00
3718,-0.2574400,440.00
3719,-0.2575200,480.00
3720,-0.2576000,400.00
3721,-0.2576800,480.00
3722,-0.2577600,440.00
3723,-0.2578400,440.00
3724,-0.2579200,440.00
3725,-0.2580000,480.00
3726,-0.2580800,400.00
3727,-0.2581600,480.00
3728,-0.2582400,400.00
3729,-0.2583200,480.00
3730,-0.2584000,400.00
3731,-0.2584800,480.00
3732,-0.2585600,400.00
3733,-0.2586400,440.00
3734,-0.2587200,400.00
3735,-0.2588000,440.00
3736,-0.2588800,400.00
3737,-0.2589600,440.00
3738,-0.2590400,360.00
3739,-0.2591200,440.00
3740,-0.2592000,400.00
3741,-0.2592800,440.00
3742,-0.2593600,400.00
3743,-0.2594400,440.00
3744,-0.2595200,400.00
3745,-0.2596000,440.00
3746,-0.2596800,400.00
3747,-0.2597600,440.00
3748,-0.2598400,360.00
3749,-0.2599200,440.00
3750,-0.2600000,400.00
3751,-0.2600800,440.00
3752,-0.2601600,400.00
3753,-0.2602400,440.00
3754,-0.2603200,360.00
3755,-0.2604000,440.00
3756,-0.2604800,360.00
3757,-0.2605600,400.00
3758,-0.2606400,360.00
3759,-0.2607200,440.00
3760,-0.2608000,360.00
3761,-0.2608800,440.00
3762,-0.2609600,360.00
3763,-0.2610400,440.00
3764,-0.2611200,320.00
3765,-0.2612000,400.00
3766,-0.2612800,320.00
3767,-0.2613600,400.00
3768,-0.2614400,360.00
3769,-0.2615200,400.00
3770,-0.2616000,320.00
3771,-0.2616800,400.00
3772,-0.2617600,320.00
3773,-0.2618400,400.00
3774,-0.2619200,320.00
3775,-0.2620000,400.00
3776,-0.2620800,320.00
3777,-0.2621600,400.00
3778,-0.2622400,320.00
3779,-0.2623200,400.00
3780,-0.2624000,320.00
3781,-0.2624800,400.00
3782,-0.2625600,320.00
3783,-0.2626400,360.00
3784,-0.2627200,320.00
3785,-0.2628000,360.00
3786,-0.2628800,320.00
3787,-0.2629600,400.00
3788,-0.2630400,320.00
3789,-0.2631200,360.00
3790,-0.2632000,320.00
3791,-0.2632800,320.00
3792,-0.2633600,320.00
3793,-0.2634400,360.00
3794,-0.2635200,320.00
3795,-0.2636000,360.00
3796,-0.2636800,320.00
3797,-0.2637600,360.00
3798,-0.2638400,320.00
3799,-0.2639200,320.00
3800,-0.2640000,320.00
3801,-0.2640800,320.00
3802,-0.2641600,320.00
3803,-0.2642400,320.00
3804,-0.2643200,280.00
3805,-0.2644000,360.00
3806,-0.2644800,320.00
3807,-0.2645600,320.00
3808,-0.2646400,280.00
3809,-0.2647200,320.00
3810,-0.2648000,280.00
3811,-0.2648800,320.00
3812,-0.2649600,320.00
3813,-0.2650400,320.00
3814,-0.2651200,320.00
3815,-0.2652000,320.00
3816,-0.2652800,280.00
3817,-0.2653600,320.00
3818,-0.2654400,280.00
3819,-0.2655200,320.00
3820,-0.2656000,280.00
3821,-0.2656800,320.00
3822,-0.2657600,320.00
3823,-0.2658400,320.00
3824,-0.2659200,280.00
3825,-0.2660000,320.00
3826,-0.2660800,280.00
3827,-0.2661600,320.00
3828,-0.2662400,280.00
3829,-0.2663200,320.00
3830,-0.2664000,280.00
3831,-0.2664800,320.00
3832,-0.2665600,280.00
3833,-0.2666400,320.00
3834,-0.2667200,280.00
3835,-0.2668000,320.00
3836,-0.2668800,280.00
3837,-0.2669600,320.00
3838,-0.2670400,280.00
3839,-0.2671200,320.00
3840,-0.2672000,280.00
3841,-0.2672800,320.00
3842,-0.2673600,240.00
3843,-0.2674400,320.00
3844,-0.2675200,240.00
3845,-0.2676000,320.00
3846,-0.2676800,280.00
3847,-0.2677600,320.00
3848,-0.2678400,280.00
3849,-0.2679200,320.00
3850,-0.2680000,240.00
3851,-0.2680800,320.00
3852,-0.2681600,240.00
3853,-0.2682400,280.00
3854,-0.2683200,240.00
3855,-0.2684000,320.00
3856,-0.2684800,240.00
3857,-0.2685600,320.00
3858,-0.2686400,240.00
3859,-0.2687200,320.00
3860,-0.2688000,240.00
3861,-0.2688800,280.00
3862,-0.2689600,240.00
3863,-0.2690400,320.00
3864,-0.2691200,280.00
3865,-0.2692000,320.00
3866,-0.2692800,240.00
3867,-0.2693600,280.00
3868,-0.2694400,240.00
3869,-0.2695200,280.00
3870,-0.2696000,240.00
3871,-0.2696800,320.00
3872,-0.2697600,240.00
3873,-0.2698400,320.00
3874,-0.2699200,240.00
3875,-0.2700000,320.00
3876,-0.2700800,240.00
3877,-0.2701600,320.00
3878,-0.2702400,240.00
3879,-0.2703200,280.00
3880,-0.2704000,240.00
3881,-0.2704800,280.00
3882,-0.2705600,240.00
3883,-0.2706400,280.00
3884,-0.2707200,240.00
3885,-0.2708000,320.00
3886,-0.2708800,240.00
3887,-0.2709600,280.00
3888,-0.2710400,240.00
3889,-0.2711200,280.00
3890,-0.2712000,240.00
3891,-0.2712800,280.00
3892,-0.2713600,240.00
3893,-0.2714400,280.00
3894,-0.2715200,200.00
3895,-0.2716000,280.00
3896,-0.2716800,200.00
3897,-0.2717600,280.00
3898,-0.2718400,200.00
3899,-0.2719200,280.00
3900,-0.2720000,240.00
3901,-0.2720800,280.00
3902,-0.2721600,200.00
3903,-0.2722400,280.00
3904,-0.2723200,240.00
3905,-0.2724000,240.00
3906,-0.2724800,240.00
3907,-0.2725600,280.00
3908,-0.2726400,240.00
3909,-0.2727200,280.00
3910,-0.2728000,200.00
3911,-0.2728800,280.00
3912,-0.2729600,160.00
3913,-0.2730400,280.00
3914,-0.2731200,200.00
3915,-0.2732000,280.00
3916,-0.2732800,240.00
3917,-0.2733600,280.00
3918,-0.2734400,200.00
3919,-0.2735200,280.00
3920,-0.2736000,200.00
3921,-0.2736800,240.00
3922,-0.2737600,200.00
3923,-0.2738400,280.00
3924,-0.2739200,200.00
3925,-0.2740000,280.00
3926,-0.2740800,200.00
3927,-0.2741600,240.00
3928,-0.2742400,200.00
3929,-0.2743200,240.00
3930,-0.2744000,200.00
3931,-0.2744800,240.00
3932,-0.2745600,200.00
3933,-0.2746400,280.00
3934,-0.2747200,200.00
3935,-0.2748000,280.00
3936,-0.2748800,160.00
3937,-0.2749600,240.00
3938,-0.2750400,200.00
3939,-0.2751200,240.00
3940,-0.2752000,160.00
3941,-0.2752800,240.00
3942,-0.2753600,200.00
3943,-0.2754400,280.00
3944,-0.2755200,160.00
3945,-0.2756000,240.00
3946,-0.2756800,200.00
3947,-0.2757600,240.00
3948,-0.2758400,160.00
3949,-0.2759200,240.00
3950,-0.2760000,200.00
3951,-0.2760800,240.00
3952,-0.2761600,160.00
3953,-0.2762400,240.00
3954,-0.2763200,160.00
3955,-0.2764000,240.00
3956,-0.2764800,160.00
3957,-0.2765600,240.00
3958,-0.2766400,200.00
3959,-0.2767200,240.00
3960,-0.2768000,200.00
3961,-0.2768800,240.00
3962,-0.2769600,160.00
3963,-0.2770400,240.00
3964,-0.2771200,160.00
3965,-0.2772000,240.00
3966,-0.2772800,160.00
3967,-0.2773600,240.00
3968,-0.2774400,200.00
3969,-0.2775200,240.00
3970,-0.2776000,160.00
3971,-0.2776800,240.00
3972,-0.2777600,160.00
3973,-0.2778400,200.00
3974,-0.2779200,160.00
3975,-0.2780000,240.00
3976,-0.2780800,200.00
3977,-0.2781600,240.00
3978,-0.2782400,160.00
3979,-0.2783200,240.00
3980,-0.2784000,160.00
3981,-0.2784800,240.00
3982,-0.2785600,160.00
3983,-0.2786400,200.00
3984,-0.2787200,160.00
3985,-0.2788000,240.00
3986,-0.2788800,160.00
3987,-0.2789600,240.00
3988,-0.2790400,160.00
3989,-0.2791200,240.00
3990,-0.2792000,160.00
3991,-0.2792800,200.00
3992,-0.2793600,160.00
3993,-0.2794400,240.00
3994,-0.2795200,160.00
3995,-0.2796000,240.00
3996,-0.2796800,160.00
3997,-0.2797600,240.00
3998,-0.2798400,160.00
3999,-0.2799200,200.00
4000,-0.2800000,160.00
4001,-0.2800800,240.00
4002,-0.2801600,160.00
4003,-0.2802400,240.00
4004,-0.2803200,160.00
4005,-0.2804000,200.00
4006,-0.2804800,160.00
4007,-0.2805600,200.00
4008,-0.2806400,160.00
4009,-0.2807200,240.00
4010,-0.2808000,160.00
4011,-0.2808800,200.00
4012,-0.2809600,160.00
4013,-0.2810400,240.00
4014,-0.2811200,160.00
4015,-0.2812000,240.00
4016,-0.2812800,160.00
4017,-0.2813600,200.00
4018,-0.2814400,160.00
4019,-0.2815200,200.00
4020,-0.2816000,160.00
4021,-0.2816800,240.00
4022,-0.2817600,160.00
4023,-0.2818400,240.00
4024,-0.2819200,160.00
4025,-0.2820000,200.00
4026,-0.2820800,160.00
4027,-0.2821600,200.00
4028,-0.2822400,160.00
4029,-0.2823200,240.00
4030,-0.2824000,160.00
4031,-0.2824800,240.00
4032,-0.2825600,160.00
4033,-0.2826400,200.00
4034,-0.2827200,160.00
4035,-0.2828000,200.00
4036,-0.2828800,160.00
4037,-0.2829600,200.00
4038,-0.2830400,160.00
4039,-0.2831200,200.00
4040,-0.2832000,160.00
4041,-0.2832800,200.00
4042,-0.2833600,160.00
4043,-0.2834400,200.00
4044,-0.2835200,160.00
4045,-0.2836000,160.00
4046,-0.2836800,160.00
4047,-0.2837600,200.00
4048,-0.2838400,160.00
4049,-0.2839200,200.00
4050,-0.2840000,120.00
4051,-0.2840800,160.00
4052,-0.2841600,120.00
4053,-0.2842400,160.00
4054,-0.2843200,160.00
4055,-0.2844000,240.00
4056,-0.2844800,120.00
4057,-0.2845600,200.00
4058,-0.2846400,120.00
4059,-0.2847200,200.00
4060,-0.2848000,120.00
4061,-0.2848800,160.00
4062,-0.2849600,160.00
4063,-0.2850400,200.00
4064,-0.2851200,120.00
4065,-0.2852000,200.00
4066,-0.2852800,120.00
4067,-0.2853600,200.00
4068,-0.2854400,120.00
4069,-0.2855200,160.00
4070,-0.2856000,120.00
4071,-0.2856800,200.00
4072,-0.2857600,160.00
4073,-0.2858400,200.00
4074,-0.2859200,120.00
4075,-0.2860000,200.00
4076,-0.2860800,120.00
4077,-0.2861600,160.00
4078,-0.2862400,120.00
4079,-0.2863200,160.00
4080,-0.2864000,160.00
4081,-0.2864800,200.00
4082,-0.2865600,120.00
4083,-0.2866400,160.00
4084,-0.2867200,120.00
4085,-0.2868000,200.00
4086,-0.2868800,120.00
4087,-0.2869600,200.00
4088,-0.2870400,160.00
4089,-0.2871200,200.00
4090,-0.2872000,160.00
4091,-0.2872800,200.00
4092,-0.2873600,120.00
4093,-0.2874400,160.00
4094,-0.2875200,120.00
4095,-0.2876000,160.00
4096,-0.2876800,120.00
4097,-0.2877600,200.00
4098,-0.2878400,120.00
4099,-0.2879200,200.00
4100,-0.2880000,120.00
4101,-0.2880800,200.00
4102,-0.2881600,120.00
4103,-0.2882400,160.00
4104,-0.2883200,120.00
4105,-0.2884000,160.00
4106,-0.2884800,120.00
4107,-0.2885600,200.00
4108,-0.2886400,120.00
4109,-0.2887200,200.00
4110,-0.2888000,120.00
4111,-0.2888800,160.00
4112,-0.2889600,120.00
4113,-0.2890400,160.00
4114,-0.2891200,120.00
4115,-0.2892000,160.00
4116,-0.2892800,160.00
4117,-0.2893600,200.00
4118,-0.2894400,120.00
4119,-0.2895200,160.00
4120,-0.2896000,120.00
4121,-0.2896800,160.00
4122,-0.2897600,120.00
4123,-0.2898400,160.00
4124,-0.2899200,120.00
4125,-0.2900000,200.00
4126,-0.2900800,120.00
4127,-0.2901600,160.00
4128,-0.2902400,120.00
4129,-0.2903200,160.00
4130,-0.2904000,120.00
4131,-0.2904800,160.00
4132,-0.2905600,120.00
4133,-0.2906400,200.00
4134,-0.2907200,160.00
4135,-0.2908000,160.00
4136,-0.2908800,120.00
4137,-0.2909600,160.00
4138,-0.2910400,120.00
4139,-0.2911200,160.00
4140,-0.2912000,120.00
4141,-0.2912800,160.00
4142,-0.2913600,160.00
4143,-0.2914400,160.00
4144,-0.2915200,120.00
4145,-0.2916000,160.00
4146,-0.2916800,120.00
4147,-0.2917600,160.00
4148,-0.2918400,120.00
4149,-0.2919200,160.00
4150,-0.2920000,120.00
4151,-0.2920800,160.00
4152,-0.2921600,120.00
4153,-0.2922400,160.00
4154,-0.2923200,120.00
4155,-0.2924000,160.00
4156,-0.2924800,120.00
4157,-0.2925600,160.00
4158,-0.2926400,120.00
4159,-0.2927200,160.00
4160,-0.2928000,120.00
4161,-0.2928800,160.00
4162,-0.2929600,120.00
4163,-0.2930400,160.00
4164,-0.2931200,120.00
4165,-0.2932000,160.00
4166,-0.2932800,120.00
4167,-0.2933600,160.00
4168,-0.2934400,120.00
4169,-0.2935200,160.00
4170,-0.2936000,120.00
4171,-0.2936800,160.00
4172,-0.2937600,120.00
4173,-0.2938400,160.00
4174,-0.2939200,120.00
4175,-0.2940000,160.00
4176,-0.2940800,120.00
4177,-0.2941600,160.00
4178,-0.2942400,120.00
4179,-0.2943200,160.00
4180,-0.2944000,120.00
4181,-0.2944800,160.00
4182,-0.2945600,120.00
4183,-0.2946400,160.00
4184,-0.2947200,120.00
4185,-0.2948000,160.00
4186,-0.2948800,120.00
4187,-0.2949600,160.00
4188,-0.2950400,120.00
4189,-0.2951200,160.00
4190,-0.2952000,120.00
4191,-0.2952800,160.00
4192,-0.2953600,120.00
4193,-0.2954400,160.00
4194,-0.2955200,120.00
4195,-0.2956000,160.00
4196,-0.2956800,120.00
4197,-0.2957600,160.00
4198,-0.2958400,80.00
4199,-0.2959200,160.00
4200,-0.2960000,120.00
4201,-0.2960800,160.00
4202,-0.2961600,120.00
4203,-0.2962400,160.00
4204,-0.2963200,120.00
4205,-0.2964000,160.00
4206,-0.2964800,120.00
4207,-0.2965600,160.00
4208,-0.2966400,80.00
4209,-0.2967200,160.00
4210,-0.2968000,120.00
4211,-0.2968800,160.00
4212,-0.2969600,120.00
4213,-0.2970400,160.00
4214,-0.2971200,80.00
4215,-0.2972000,160.00
4216,-0.2972800,120.00
4217,-0.2973600,160.00
4218,-0.2974400,120.00
4219,-0.2975200,160.00
4220,-0.2976000,120.00
4221,-0.2976800,160.00
4222,-0.2977600,120.00
4223,-0.2978400,160.00
4224,-0.2979200,80.00
4225,-0.2980000,120.00
4226,-0.2980800,120.00
4227,-0.2981600,160.00
4228,-0.2982400,120.00
4229,-0.2983200,160.00
4230,-0.2984000,120.00
4231,-0.2984800,160.00
4232,-0.2985600,80.00
4233,-0.2986400,120.00
4234,-0.2987200,120.00
4235,-0.2988000,160.00
4236,-0.2988800,120.00
4237,-0.2989600,160.00
4238,-0.2990400,120.00
4239,-0.2991200,160.00
4240,-0.2992000,120.00
4241,-0.2992800,160.00
4242,-0.2993600,120.00
4243,-0.2994400,120.00
4244,-0.2995200,120.00
4245,-0.2996000,160.00
4246,-0.2996800,120.00
4247,-0.2997600,160.00
4248,-0.2998400,80.00
4249,-0.2999200,160.00
4250,-0.3000000,80.00
4251,-0.3000800,160.00
4252,-0.3001600,80.00
4253,-0.3002400,160.00
4254,-0.3003200,120.00
4255,-0.3004000,160.00
4256,-0.3004800,120.00
4257,-0.3005600,160.00
4258,-0.3006400,120.00
4259,-0.3007200,160.00
4260,-0.3008000,80.00
4261,-0.3008800,160.00
4262,-0.3009600,120.00
4263,-0.3010400,160.00
4264,-0.3011200,120.00
4265,-0.3012000,160.00
4266,-0.3012800,80.00
4267,-0.3013600,120.00
4268,-0.3014400,120.00
4269,-0.3015200,160.00
4270,-0.3016000,120.00
4271,-0.3016800,160.00
4272,-0.3017600,120.00
4273,-0.3018400,160.00
4274,-0.3019200,120.00
4275,-0.3020000,160.00
4276,-0.3020800,120.00
4277,-0.3021600,120.00
4278,-0.3022400,80.00
4279,-0.3023200,160.00
4280,-0.3024000,120.00
4281,-0.3024800,160.00
4282,-0.3025600,120.00
4283,-0.3026400,160.00
4284,-0.3027200,80.00
4285,-0.3028000,120.00
4286,-0.3028800,80.00
4287,-0.3029600,160.00
4288,-0.3030400,120.00
4289,-0.3031200,160.00
4290,-0.3032000,120.00
4291,-0.3032800,160.00
4292,-0.3033600,80.00
4293,-0.3034400,120.00
4294,-0.3035200,80.00
4295,-0.3036000,120.00
4296,-0.3036800,80.00
4297,-0.3037600,160.00
4298,-0.3038400,120.00
4299,-0.3039200,160.00
4300,-0.3040000,80.00
4301,-0.3040800,160.00
4302,-0.3041600,80.00
4303,-0.3042400,160.00
4304,-0.3043200,120.00
4305,-0.3044000,160.00
4306,-0.3044800,120.00
4307,-0.3045600,160.00
4308,-0.3046400,80.00
4309,-0.3047200,160.00
4310,-0.3048000,80.00
4311,-0.3048800,120.00
4312,-0.3049600,80.00
4313,-0.3050400,120.00
4314,-0.3051200,80.00
4315,-0.3052000,160.00
4316,-0.3052800,120.00
4317,-0.3053600,120.00
4318,-0.3054400,80.00
4319,-0.3055200,120.00
4320,-0.3056000,80.00
4321,-0.3056800,120.00
4322,-0.3057600,120.00
4323,-0.3058400,160.00
4324,-0.3059200,120.00
4325,-0.3060000,160.00
4326,-0.3060800,80.00
4327,-0.3061600,120.00
4328,-0.3062400,80.00
4329,-0.3063200,160.00
4330,-0.3064000,80.00
4331,-0.3064800,120.00
4332,-0.3065600,120.00
4333,-0.3066400,160.00
4334,-0.3067200,80.00
4335,-0.3068000,120.00
4336,-0.3068800,80.00
4337,-0.3069600,160.00
4338,-0.3070400,80.00
4339,-0.3071200,120.00
4340,-0.3072000,120.00
4341,-0.3072800,120.00
4342,-0.3073600,80.00
4343,-0.3074400,160.00
4344,-0.3075200,80.00
4345,-0.3076000,120.00
4346,-0.3076800,80.00
4347,-0.3077600,120.00
4348,-0.3078400,80.00
4349,-0.3079200,120.00
4350,-0.3080000,80.00
4351,-0.3080800,160.00
4352,-0.3081600,80.00
4353,-0.3082400,120.00
4354,-0.3083200,80.00
4355,-0.3084000,120.00
4356,-0.3084800,80.00
4357,-0.3085600,120.00
4358,-0.3086400,120.00
4359,-0.3087200,160.00
4360,-0.3088000,80.00
4361,-0.3088800,160.00
4362,-0.3089600,80.00
4363,-0.3090400,120.00
4364,-0.3091200,80.00
4365,-0.3092000,120.00
4366,-0.3092800,120.00
4367,-0.3093600,160.00
4368,-0.3094400,80.00
4369,-0.3095200,120.00
4370,-0.3096000,80.00
4371,-0.3096800,120.00
4372,-0.3097600,80.00
4373,-0.3098400,120.00
4374,-0.3099200,80.00
4375,-0.3100000,160.00
4376,-0.3100800,80.00
4377,-0.3101600,160.00
4378,-0.3102400,80.00
4379,-0.3103200,120.00
4380,-0.3104000,80.00
4381,-0.3104800,120.00
4382,-0.3105600,80.00
4383,-0.3106400,120.00
4384,-0.3107200,120.00
4385,-0.3108000,160.00
4386,-0.3108800,80.00
4387,-0.3109600,120.00
4388,-0.3110400,80.00
4389,-0.3111200,120.00
4390,-0.3112000,80.00
4391,-0.3112800,120.00
4392,-0.3113600,80.00
4393,-0.3114400,120.00
4394,-0.3115200,80.00
4395,-0.3116000,120.00
4396,-0.3116800,80.00
4397,-0.3117600,120.00
4398,-0.3118400,80.00
4399,-0.3119200,120.00
4400,-0.3120000,80.00
4401,-0.3120800,120.00
4402,-0.3121600,80.00
4403,-0.3122400,120.00
4404,-0.3123200,80.00
4405,-0.3124000,120.00
4406,-0.3124800,80.00
4407,-0.3125600,120.00
4408,-0.3126400,80.00
4409,-0.3127200,120.00
4410,-0.3128000,80.00
4411,-0.3128800,120.00
4412,-0.3129600,80.00
4413,-0.3130400,120.00
4414,-0.3131200,80.00
4415,-0.3132000,120.00
4416,-0.3132800,80.00
4417,-0.3133600,120.00
4418,-0.3134400,80.00
4419,-0.3135200,120.00
4420,-0.3136000,80.00
4421,-0.3136800,120.00
4422,-0.3137600,80.00
4423,-0.3138400,120.00
4424,-0.3139200,80.00
4425,-0.3140000,120.00
4426,-0.3140800,80.00
4427,-0.3141600,120.00
4428,-0.3142400,80.00
4429,-0.3143200,120.00
4430,-0.3144000,80.00
4431,-0.3144800,120.00
4432,-0.3145600,80.00
4433,-0.3146400,120.00
4434,-0.3147200,80.00
4435,-0.3148000,120.00
4436,-0.3148800,80.00
4437,-0.3149600,120.00
4438,-0.3150400,80.00
4439,-0.3151200,120.00
4440,-0.3152000,40.00
4441,-0.3152800,120.00
4442,-0.3153600,80.00
4443,-0.3154400,120.00
4444,-0.3155200,80.00
4445,-0.3156000,120.00
4446,-0.3156800,80.00
4447,-0.3157600,120.00
4448,-0.3158400,40.00
4449,-0.3159200,120.00
4450,-0.3160000,80.00
4451,-0.3160800,120.00
4452,-0.3161600,80.00
4453,-0.3162400,120.00
4454,-0.3163200,80.00
4455,-0.3164000,120.00
4456,-0.3164800,80.00
4457,-0.3165600,120.00
4458,-0.3166400,80.00
4459,-0.3167200,120.00
4460,-0.3168000,80.00
4461,-0.3168800,120.00
4462,-0.3169600,80.00
4463,-0.3170400,120.00
4464,-0.3171200,80.00
4465,-0.3172000,120.00
4466,-0.3172800,40.00
4467,-0.3173600,120.00
4468,-0.3174400,80.00
4469,-0.3175200,120.00
4470,-0.3176000,80.00
4471,-0.3176800,120.00
4472,-0.3177600,80.00
4473,-0.3178400,120.00
4474,-0.3179200,40.00
4475,-0.3180000,120.00
4476,-0.3180800,40.00
4477,-0.3181600,120.00
4478,-0.3182400,80.00
4479,-0.3183200,120.00
4480,-0.3184000,80.00
4481,-0.3184800,120.00
4482,-0.3185600,80.00
4483,-0.3186400,120.00
4484,-0.3187200,40.00
4485,-0.3188000,120.00
4486,-0.3188800,80.00
4487,-0.3189600,120.00
4488,-0.3190400,80.00
4489,-0.3191200,120.00
4490,-0.3192000,80.00
4491,-0.3192800,120.00
4492,-0.3193600,80.00
4493,-0.3194400,120.00
4494,-0.3195200,40.00
4495,-0.3196000,120.00
4496,-0.3196800,80.00
4497,-0.3197600,120.00
4498,-0.3198400,80.00
4499,-0.3199200,120.00
4500,-0.3200000,40.00
4501,-0.3200800,80.00
4502,-0.3201600,80.00
4503,-0.3202400,120.00
4504,-0.3203200,80.00
4505,-0.3204000,120.00
4506,-0.3204800,80.00
4507,-0.3205600,120.00
4508,-0.3206400,40.00
4509,-0.3207200,120.00
4510,-0.3208000,80.00
4511,-0.3208800,120.00
4512,-0.3209600,80.00
4513,-0.3210400,120.00
4514,-0.3211200,80.00
4515,-0.3212000,120.00
4516,-0.3212800,80.00
4517,-0.3213600,120.00
4518,-0.3214400,40.00
4519,-0.3215200,120.00
4520,-0.3216000,80.00
4521,-0.3216800,120.00
4522,-0.3217600,80.00
4523,-0.3218400,120.00
4524,-0.3219200,80.00
4525,-0.3220000,120.00
4526,-0.3220800,40.00
4527,-0.3221600,120.00
4528,-0.3222400,40.00
4529,-0.3223200,120.00
4530,-0.3224000,80.00
4531,-0.3224800,120.00
4532,-0.3225600,80.00
4533,-0.3226400,120.00
4534,-0.3227200,40.00
4535,-0.3228000,80.00
4536,-0.3228800,80.00
4537,-0.3229600,80.00
4538,-0.3230400,80.00
4539,-0.3231200,120.00
4540,-0.3232000,80.00
4541,-0.3232800,120.00
4542,-0.3233600,80.00
4543,-0.3234400,120.00
4544,-0.3235200,80.00
4545,-0.3236000,120.00
4546,-0.3236800,40.00
4547,-0.3237600,120.00
4548,-0.3238400,80.00
4549,-0.3239200,120.00
4550,-0.3240000,40.00
4551,-0.3240800,120.00
4552,-0.3241600,40.00
4553,-0.3242400,120.00
4554,-0.3243200,80.00
4555,-0.3244000,120.00
4556,-0.3244800,80.00
4557,-0.3245600,120.00
4558,-0.3246400,80.00
4559,-0.3247200,120.00
4560,-0.3248000,40.00
4561,-0.3248800,120.00
4562,-0.3249600,80.00
4563,-0.3250400,120.00
4564,-0.3251200,80.00
4565,-0.3252000,160.00
4566,-0.3252800,80.00
4567,-0.3253600,120.00
4568,-0.3254400,40.00
4569,-0.3255200,120.00
4570,-0.3256000,40.00
4571,-0.3256800,120.00
4572,-0.3257600,40.00
4573,-0.3258400,120.00
4574,-0.3259200,80.00
4575,-0.3260000,120.00
4576,-0.3260800,80.00
4577,-0.3261600,120.00
4578,-0.3262400,40.00
4579,-0.3263200,120.00
4580,-0.3264000,80.00
4581,-0.3264800,120.00
4582,-0.3265600,80.00
4583,-0.3266400,120.00
4584,-0.3267200,80.00
4585,-0.3268000,120.00
4586,-0.3268800,40.00
4587,-0.3269600,120.00
4588,-0.3270400,40.00
4589,-0.3271200,120.00
4590,-0.3272000,80.00
4591,-0.3272800,120.00
4592,-0.3273600,80.00
4593,-0.3274400,120.00
4594,-0.3275200,40.00
4595,-0.3276000,120.00
4596,-0.3276800,40.00
4597,-0.3277600,80.00
4598,-0.3278400,40.00
4599,-0.3279200,120.00
4600,-0.3280000,80.00
4601,-0.3280800,120.00
4602,-0.3281600,80.00
4603,-0.3282400,120.00
4604,-0.3283200,40.00
4605,-0.3284000,120.00
4606,-0.3284800,80.00
4607,-0.3285600,120.00
4608,-0.3286400,80.00
4609,-0.3287200,120.00
4610,-0.3288000,80.00
4611,-0.3288800,120.00
4612,-0.3289600,40.00
4613,-0.3290400,120.00
4614,-0.3291200,40.00
4615,-0.3292000,120.00
4616,-0.3292800,80.00
4617,-0.3293600,120.00
4618,-0.3294400,80.00
4619,-0.3295200,120.00
4620,-0.3296000,40.00
4621,-0.3296800,120.00
4622,-0.3297600,40.00
4623,-0.3298400,120.00
4624,-0.3299200,40.00
4625,-0.3300000,120.00
4626,-0.3300800,80.00
4627,-0.3301600,120.00
4628,-0.3302400,40.00
4629,-0.3303200,120.00
4630,-0.3304000,40.00
4631,-0.3304800,120.00
4632,-0.3305600,40.00
4633,-0.3306400,120.00
4634,-0.3307200,40.00
4635,-0.3308000,120.00
4636,-0.3308800,40.00
4637,-0.3309600,120.00
4638,-0.3310400,40.00
4639,-0.3311200,80.00
4640,-0.3312000,80.00
4641,-0.3312800,120.00
4642,-0.3313600,40.00
4643,-0.3314400,120.00
4644,-0.3315200,80.00
4645,-0.3316000,120.00
4646,-0.3316800,40.00
4647,-0.3317600,120.00
4648,-0.3318400,40.00
4649,-0.3319200,120.00
4650,-0.3320000,40.00
4651,-0.3320800,120.00
4652,-0.3321600,80.00
4653,-0.3322400,120.00
4654,-0.3323200,40.00
4655,-0.3324000,120.00
4656,-0.3324800,40.00
4657,-0.3325600,120.00
4658,-0.3326400,40.00
4659,-0.3327200,120.00
4660,-0.3328000,80.00
4661,-0.3328800,120.00
4662,-0.3329600,80.00
4663,-0.3330400,120.00
4664,-0.3331200,40.00
4665,-0.3332000,80.00
4666,-0.3332800,40.00
4667,-0.3333600,120.00
4668,-0.3334400,80.00
4669,-0.3335200,120.00
4670,-0.3336000,80.00
4671,-0.3336800,120.00
4672,-0.3337600,40.00
4673,-0.3338400,120.00
4674,-0.3339200,80.00
4675,-0.3340000,120.00
4676,-0.3340800,40.00
4677,-0.3341600,120.00
4678,-0.3342400,40.00
4679,-0.3343200,120.00
4680,-0.3344000,80.00
4681,-0.3344800,120.00
4682,-0.3345600,40.00
4683,-0.3346400,80.00
4684,-0.3347200,40.00
4685,-0.3348000,120.00
4686,-0.3348800,40.00
4687,-0.3349600,120.00
4688,-0.3350400,40.00
4689,-0.3351200,120.00
4690,-0.3352000,40.00
4691,-0.3352800,120.00
4692,-0.3353600,40.00
4693,-0.3354400,120.00
4694,-0.3355200,40.00
4695,-0.3356000,120.00
4696,-0.3356800,80.00
4697,-0.3357600,120.00
4698,-0.3358400,40.00
4699,-0.3359200,80.00
4700,-0.3360000,40.00
4701,-0.3360800,80.00
4702,-0.3361600,80.00
4703,-0.3362400,80.00
4704,-0.3363200,40.00
4705,-0.3364000,120.00
4706,-0.3364800,40.00
4707,-0.3365600,120.00
4708,-0.3366400,40.00
4709,-0.3367200,80.00
4710,-0.3368000,40.00
4711,-0.3368800,120.00
4712,-0.3369600,80.00
4713,-0.3370400,120.00
4714,-0.3371200,80.00
4715,-0.3372000,120.00
4716,-0.3372800,40.00
4717,-0.3373600,80.00
4718,-0.3374400,40.00
4719,-0.3375200,80.00
4720,-0.3376000,40.00
4721,-0.3376800,120.00
4722,-0.3377600,40.00
4723,-0.3378400,120.00
4724,-0.3379200,40.00
4725,-0.3380000,80.00
4726,-0.3380800,40.00
4727,-0.3381600,80.00
4728,-0.3382400,40.00
4729,-0.3383200,120.00
4730,-0.3384000,40.00
4731,-0.3384800,120.00
4732,-0.3385600,40.00
4733,-0.3386400,120.00
4734,-0.3387200,40.00
4735,-0.3388000,120.00
4736,-0.3388800,80.00
4737,-0.3389600,120.00
4738,-0.3390400,80.00
4739,-0.3391200,120.00
4740,-0.3392000,80.00
4741,-0.3392800,120.00
4742,-0.3393600,80.00
4743,-0.3394400,120.00
4744,-0.3395200,40.00
4745,-0.3396000,120.00
4746,-0.3396800,40.00
4747,-0.3397600,120.00
4748,-0.3398400,40.00
4749,-0.3399200,120.00
4750,-0.3400000,40.00
4751,-0.3400800,120.00
4752,-0.3401600,40.00
4753,-0.3402400,80.00
4754,-0.3403200,40.00
4755,-0.3404000,80.00
4756,-0.3404800,40.00
4757,-0.3405600,120.00
4758,-0.3406400,40.00
4759,-0.3407200,120.00
4760,-0.3408000,40.00
4761,-0.3408800,80.00
4762,-0.3409600,40.00
4763,-0.3410400,120.00
4764,-0.3411200,40.00
4765,-0.3412000,120.00
4766,-0.3412800,40.00
4767,-0.3413600,120.00
4768,-0.3414400,40.00
4769,-0.3415200,80.00
4770,-0.3416000,40.00
4771,-0.3416800,80.00
4772,-0.3417600,40.00
4773,-0.3418400,120.00
4774,-0.3419200,80.00
4775,-0.3420000,120.00
4776,-0.3420800,0.00
4777,-0.3421600,120.00
4778,-0.3422400,40.00
4779,-0.3423200,80.00
4780,-0.3424000,40.00
4781,-0.3424800,120.00
4782,-0.3425600,40.00
4783,-0.3426400,120.00
4784,-0.3427200,40.00
4785,-0.3428000,80.00
4786,-0.3428800,40.00
4787,-0.3429600,120.00
4788,-0.3430400,40.00
4789,-0.3431200,80.00
4790,-0.3432000,40.00
4791,-0.3432800,120.00
4792,-0.3433600,80.00
4793,-0.3434400,120.00
4794,-0.3435200,40.00
4795,-0.3436000,80.00
4796,-0.3436800,40.00
4797,-0.3437600,80.00
4798,-0.3438400,40.00
4799,-0.3439200,120.00
4800,-0.3440000,80.00
4801,-0.3440800,120.00
4802,-0.3441600,0.00
4803,-0.3442400,80.00
4804,-0.3443200,40.00
4805,-0.3444000,80.00
4806,-0.3444800,40.00
4807,-0.3445600,80.00
4808,-0.3446400,40.00
4809,-0.3447200,120.00
4810,-0.3448000,40.00
4811,-0.3448800,120.00
4812,-0.3449600,0.00
4813,-0.3450400,80.00
4814,-0.3451200,40.00
4815,-0.3452000,120.00
4816,-0.3452800,40.00
4817,-0.3453600,80.00
4818,-0.3454400,40.00
4819,-0.3455200,80.00
4820,-0.3456000,40.00
4821,-0.3456800,80.00
4822,-0.3457600,40.00
4823,-0.3458400,120.00
4824,-0.3459200,40.00
4825,-0.3460000,120.00
4826,-0.3460800,40.00
4827,-0.3461600,80.00
4828,-0.3462400,40.00
4829,-0.3463200,120.00
4830,-0.3464000,0.00
4831,-0.3464800,80.00
4832,-0.3465600,40.00
4833,-0.3466400,80.00
4834,-0.3467200,40.00
4835,-0.3468000,80.00
4836,-0.3468800,40.00
4837,-0.3469600,120.00
4838,-0.3470400,0.00
4839,-0.3471200,80.00
4840,-0.3472000,40.00
4841,-0.3472800,80.00
4842,-0.3473600,40.00
4843,-0.3474400,80.00
4844,-0.3475200,80.00
4845,-0.3476000,120.00
4846,-0.3476800,0.00
4847,-0.3477600,80.00
4848,-0.3478400,0.00
4849,-0.3479200,80.00
4850,-0.3480000,40.00
4851,-0.3480800,80.00
4852,-0.3481600,80.00
4853,-0.3482400,80.00
4854,-0.3483200,40.00
4855,-0.3484000,80.00
4856,-0.3484800,40.00
4857,-0.3485600,80.00
4858,-0.3486400,40.00
4859,-0.3487200,80.00
4860,-0.3488000,40.00
4861,-0.3488800,120.00
4862,-0.3489600,40.00
4863,-0.3490400,80.00
4864,-0.3491200,40.00
4865,-0.3492000,80.00
4866,-0.3492800,0.00
4867,-0.3493600,120.00
4868,-0.3494400,40.00
4869,-0.3495200,120.00
4870,-0.3496000,0.00
4871,-0.3496800,120.00
4872,-0.3497600,40.00
4873,-0.3498400,80.00
4874,-0.3499200,40.00
4875,-0.3500000,80.00
4876,-0.3500800,40.00
4877,-0.3501600,120.00
4878,-0.3502400,40.00
4879,-0.3503200,120.00
4880,-0.3504000,40.00
4881,-0.3504800,80.00
4882,-0.3505600,40.00
4883,-0.3506400,80.00
4884,-0.3507200,40.00
4885,-0.3508000,80.00
4886,-0.3508800,80.00
4887,-0.3509600,120.00
4888,-0.3510400,40.00
4889,-0.3511200,120.00
4890,-0.3512000,40.00
4891,-0.3512800,80.00
4892,-0.3513600,40.00
4893,-0.3514400,120.00
4894,-0.3515200,40.00
4895,-0.3516000,80.00
4896,-0.3516800,40.00
4897,-0.3517600,120.00
4898,-0.3518400,0.00
4899,-0.3519200,80.00
4900,-0.3520000,40.00
4901,-0.3520800,80.00
4902,-0.3521600,0.00
4903,-0.3522400,120.00
4904,-0.3523200,40.00
4905,-0.3524000,80.00
4906,-0.3524800,40.00
4907,-0.3525600,80.00
4908,-0.3526400,0.00
4909,-0.3527200,80.00
4910,-0.3528000,40.00
4911,-0.3528800,80.00
4912,-0.3529600,40.00
4913,-0.3530400,120.00
4914,-0.3531200,40.00
4915,-0.3532000,80.00
4916,-0.3532800,40.00
4917,-0.3533600,80.00
4918,-0.3534400,0.00
4919,-0.3535200,120.00
4920,-0.3536000,0.00
4921,-0.3536800,80.00
4922,-0.3537600,40.00
4923,-0.3538400,120.00
4924,-0.3539200,0.00
4925,-0.3540000,120.00
4926,-0.3540800,0.00
4927,-0.3541600,80.00
4928,-0.3542400,0.00
4929,-0.3543200,80.00
4930,-0.3544000,40.00
4931,-0.3544800,80.00
4932,-0.3545600,0.00
4933,-0.3546400,80.00
4934,-0.3547200,0.00
4935,-0.3548000,80.00
4936,-0.3548800,40.00
4937,-0.3549600,80.00
4938,-0.3550400,40.00
4939,-0.3551200,80.00
4940,-0.3552000,0.00
4941,-0.3552800,80.00
4942,-0.3553600,0.00
4943,-0.3554400,80.00
4944,-0.3555200,0.00
4945,-0.3556000,120.00
4946,-0.3556800,40.00
4947,-0.3557600,80.00
4948,-0.3558400,40.00
4949,-0.3559200,120.00
4950,-0.3560000,40.00
4951,-0.3560800,80.00
4952,-0.3561600,40.00
4953,-0.3562400,80.00
4954,-0.3563200,0.00
4955,-0.3564000,120.00
4956,-0.3564800,40.00
4957,-0.3565600,80.00
4958,-0.3566400,40.00
4959,-0.3567200,80.00
4960,-0.3568000,0.00
4961,-0.3568800,80.00
4962,-0.3569600,0.00
4963,-0.3570400,80.00
4964,-0.3571200,40.00
4965,-0.3572000,80.00
4966,-0.3572800,40.00
4967,-0.3573600,80.00
4968,-0.3574400,0.00
4969,-0.3575200,80.00
4970,-0.3576000,0.00
4971,-0.3576800,80.00
4972,-0.3577600,40.00
4973,-0.3578400,80.00
4974,-0.3579200,40.00
4975,-0.3580000,120.00
4976,-0.3580800,40.00
4977,-0.3581600,80.00
4978,-0.3582400,40.00
4979,-0.3583200,80.00
4980,-0.3584000,40.00
4981,-0.3584800,80.00
4982,-0.3585600,40.00
4983,-0.3586400,80.00
4984,-0.3587200,40.00
4985,-0.3588000,80.00
4986,-0.3588800,0.00
4987,-0.3589600,80.00
4988,-0.3590400,40.00
4989,-0.3591200,80.00
4990,-0.3592000,40.00
4991,-0.3592800,120.00
4992,-0.3593600,40.00
4993,-0.3594400,120.00
4994,-0.3595200,0.00
4995,-0.3596000,80.00
4996,-0.3596800,40.00
4997,-0.3597600,80.00
4998,-0.3598400,40.00
4999,-0.3599200,80.00
